window_id,carrying_position,mean_acc_x,mean_acc_y,mean_acc_z,std_acc_x,std_acc_y,std_acc_z,svm_mean,svm_std,peak_pressure_count,step_count
1,handbag,0.13725494437515434,0.0027662598012735545,9.633745593646044,0.14599249632471373,0.12432136184507105,0.12534784677294386,9.793615933976296,0.2715431146880347,1,2
2,pocket,0.3263168206144639,0.217810240595258,9.715291759948615,0.15260986039430735,0.09934835124012278,0.11380020323926418,9.876642163102979,0.19384436249563614,2,2
3,handbag,-0.1476535013034432,-0.0038322286223005098,9.654049178104504,0.12377624332966294,0.14138569100334702,0.1327720044236086,9.765841901633992,0.20598693066517965,1,2
4,handbag,-0.00616989297849041,-0.05187420811669112,9.67432907618236,0.13258825346326164,0.09517563951953927,0.07760817996073205,10.183485394639188,0.24910913410639915,1,2
5,pocket,0.13614734817906587,0.07298368001481145,9.703974863213583,0.14333920787505744,0.07450169421759692,0.12324059204453906,9.79899218513218,0.20619467734463512,2,2
6,pocket,0.008564340259558767,-0.13407287402661955,9.778596493341363,0.15153861210410768,0.13693566696390153,0.11327121192036671,9.702679015094942,0.25027722023714344,1,1
7,handbag,0.12288333172440426,-0.05576618494626985,9.699942634645028,0.1376050454147815,0.12770737822338593,0.08785058483596467,9.978969699410884,0.2174995904270728,2,1
8,handheld,0.3380569568524242,0.33631884030593845,9.513031554364819,0.14258441470583158,0.09577963296595593,0.09727294528275995,9.518342205022343,0.2420736517478815,1,2
9,handbag,0.22982050820039712,-0.07801701093500825,9.64972029909823,0.1475236581363319,0.1271070576247904,0.09587458046761327,9.8747985744897,0.166777684255931,1,1
10,handbag,0.40959255532643835,-0.03257780572549736,9.759578427530009,0.1300394878735008,0.14339756503292259,0.0927006530768868,9.647294195674212,0.16439247637828375,2,1
11,handbag,0.23930629265276165,0.11861994892479973,9.786267363876656,0.1446239820508517,0.12522355092866663,0.07302703049205853,10.06140997966754,0.21414856959151068,1,2
12,handbag,0.358869124724179,0.12486846560360182,9.791785787817611,0.17311879932421334,0.16877100946151852,0.12348672331308688,10.08065563993733,0.18366186509171376,2,1
13,pocket,0.20038945498072536,0.08184508431453752,9.820117766996207,0.13807955207001626,0.10297971492261732,0.08107334950109288,9.696478115780602,0.11878114214699842,2,2
14,handbag,0.12145867749603258,-0.1304048498669338,9.721843727709,0.13198138110301263,0.07528684770686833,0.07900494592908186,9.52240285808757,0.2741286219033494,2,1
15,handheld,0.4320852083312832,0.2118187193165348,9.736316498086966,0.19170248922554065,0.09178064688294102,0.12398328536636062,9.274444332525288,0.29856653377002834,2,1
16,pocket,0.10359745680958997,0.056833592029040404,9.608609145374043,0.15451204983438493,0.07411236981192594,0.0719459377167825,9.796302621314181,0.29375978220019827,2,2
17,handheld,0.2615767234686449,0.25645394266098814,9.492542468721547,0.1345432335578164,0.16277795714326793,0.09394729624285673,9.206842710537984,0.24278195947713926,1,1
18,handheld,0.32533460448367096,0.032621885416538335,9.568241741642211,0.16287001073194377,0.11990118923946506,0.08011467785172567,9.718739247022462,0.24176473701006732,2,2
19,handheld,0.3362239056706285,0.22789932069686922,9.639816244830957,0.15512214490141435,0.1587820410778889,0.1327345994187603,9.599759974117893,0.2549638850508074,2,1
20,handheld,0.03518359946699706,0.2655300138895322,9.574029544866919,0.1385962732970381,0.11290893001274678,0.12287509834733285,9.879515350812726,0.21726858959810252,2,1
21,pocket,0.36779256087423984,0.05396692690954157,9.680707305993987,0.14902096367383716,0.10189823282337801,0.08356643491435076,9.73658973147815,0.1578702970397014,2,1
22,pocket,0.06315671308390947,0.21565402329267763,9.663791173935875,0.14417121318105916,0.08539850243544525,0.0800591580179017,9.598413705800748,0.3093737111611228,1,2
23,handheld,0.33160554830249905,-0.04942536137396765,9.803782701390206,0.16980166327987378,0.11206493139235184,0.11534478844643443,9.952267505692317,0.25071738030862933,1,2
24,handheld,0.29027602065736485,0.14164273844833924,9.613086351221215,0.1636268485130951,0.13688417297669606,0.10866699623448962,9.467175674160893,0.24764435481892724,1,1
25,pocket,0.33279459926698474,0.2566673250025807,9.724058191718397,0.10714110876613694,0.11550775535061,0.09291837515784653,9.880768992888777,0.23416540638567376,1,2
26,pocket,0.029249471835145868,0.17221914151569484,9.668023230658317,0.18805817932397928,0.0880498485049439,0.09106885583115143,10.255543984024076,0.2796818570314035,2,2
27,pocket,0.29818946141015873,0.3987468707423887,9.609342143367314,0.14423366260519696,0.1330624923009606,0.095322503622876,9.981392903779524,0.24409636735407342,2,2
28,handbag,0.37283905146122576,0.1789229590749387,9.637228854603192,0.18444726372103654,0.13677595242002188,0.11803865578172389,9.638639022374344,0.22553078423099052,2,1
29,handbag,0.23900936747426108,0.0661674496870999,9.504874029491976,0.16432102270526128,0.10940290578812517,0.1314141497065232,9.485419089573547,0.23321842936503298,2,2
30,handbag,0.08720749805931347,0.45090636716017973,9.784834682689365,0.1549645987015487,0.10689890579452674,0.13645442717584966,9.973664867056657,0.2532451059058766,2,2
31,handheld,0.3479621421491985,0.30604412208170606,9.850226125374803,0.1481167481279963,0.08581308562316214,0.08531112536895226,9.433922379997146,0.19236611183431165,2,2
32,handbag,0.22708794421511547,-0.0823489074158076,9.683253388295888,0.20517554495622084,0.13256135993863938,0.10116040910365835,9.741503690569939,0.3207113949937132,2,2
33,handheld,-0.04116663957415437,0.015900367408602248,9.712906208739431,0.1445670089518635,0.11075341965843112,0.12687026670207524,9.921127229598527,0.21964553918020985,2,2
34,handheld,0.07557158065250094,-0.01457897284495882,9.680414215959415,0.13657337793070704,0.06642439732000785,0.08258865744411767,9.487762293899728,0.2102411975956589,2,2
35,handbag,0.13105582031595392,0.18747555254108667,9.627990871846995,0.13837381945765306,0.09029825892351248,0.08635843413214563,9.47396668422363,0.23110393980998398,2,2
36,handheld,0.4358727431459485,0.17853896441801465,9.780490286021088,0.15002118335923642,0.1312443677079457,0.11593740157917612,9.410532359726872,0.29545795075793,1,2
37,handbag,0.4095274629459321,0.1776142318874599,9.741906832515163,0.14998627506451034,0.11316172588923341,0.09062632983128034,10.138622726680584,0.23657463027502076,1,2
38,handbag,0.40904527965850135,-0.08558913513987408,9.41878656206209,0.17008047944672877,0.09729084218026543,0.07049182732857417,10.164627018522417,0.30821043945282056,2,2
39,pocket,0.24485404165257996,0.033429014407394084,9.60653892525909,0.16516498068423927,0.12107585755694797,0.0834616528811831,10.160904545052901,0.23351653513328122,2,1
40,handbag,0.3470392187668798,0.09208576943316268,9.504693875043598,0.16518981372908015,0.10319905211635813,0.11980598245304007,10.194354822650078,0.17895863322325944,1,1
41,pocket,0.0388830886971164,-0.10863046591848664,9.865541434538859,0.14543524013696738,0.10714451703946168,0.10498066773089064,9.581741235709577,0.2082521586450276,2,1
42,handbag,0.21102046475891567,0.005380668013053119,9.692817122755427,0.16353044216022491,0.11460941158709671,0.06875522784496041,9.286833795900824,0.21569470463964893,2,1
43,handbag,0.27774490524743944,0.27277204521988785,9.73407015616963,0.16562593285363425,0.1537098354341881,0.08782126590308421,10.16581190197227,0.28242904687905424,2,1
44,pocket,0.04876514140363197,-0.0764891197563506,9.674670486491978,0.14841347763029689,0.15361524005187666,0.136454484875895,9.972294292079829,0.2270848615291953,2,2
45,pocket,0.24148681344628045,0.2846312592462177,9.82026967262901,0.15558400297445515,0.08057640851283618,0.09861023754327186,9.952194158667169,0.1909738665388195,2,2
46,handbag,0.46299587787065166,0.24093789110426028,9.796070517259444,0.16560062785650093,0.11870781709840089,0.09513204078242511,9.479994712834824,0.17762150020265027,1,2
47,handheld,0.293815467684094,0.07511153362346229,9.68845208169795,0.15422330602018064,0.09095586830158804,0.10016417872812405,9.764262746455696,0.1584212900419159,2,2
48,pocket,0.34763178099961806,0.03213524007587784,9.881799305567524,0.15613156550296936,0.0987352306277585,0.1041026206177055,9.77981675564145,0.38268135311097995,1,1
49,handheld,-0.15786103851483937,0.20981931465743603,9.728531814223288,0.17814190480829556,0.0828222172305056,0.09218367733370497,9.724215438440872,0.21253171603741866,2,1
50,handheld,0.4436953273729386,0.015471180692524303,9.563987492486119,0.15438027046950326,0.10264534535759184,0.12681078357091166,9.527434420493824,0.2721366469897745,2,2
51,handheld,0.18208164783717457,0.021440246006465144,9.720001873751357,0.13784535833309194,0.09613577290137,0.09058072064877513,9.264770666986982,0.18966343992118706,2,2
52,pocket,0.09469705288949365,0.10713579151943257,9.76174406577263,0.1230863997752891,0.1405108115468726,0.11987533533581587,9.551833960440696,0.31138201650768954,1,1
53,handheld,0.18380432222851048,-0.14562803149443015,9.696677524745173,0.15226301907933146,0.10316139512250691,0.13644889605674798,9.022133502880672,0.2071275693651341,1,2
54,pocket,-0.01275332374213467,-0.06399707180820473,9.668851695475704,0.14337065746703512,0.08108348932307669,0.10755446459871784,9.636780350300969,0.3435368684393819,2,2
55,handheld,0.36719130926282134,0.07212065011982205,9.886436131622999,0.1661662786199384,0.11994351993821402,0.07904715027686739,9.586250420783667,0.348597024523709,1,1
56,handbag,0.15969064158393106,0.16708352386551192,9.591413754128467,0.18155396197385285,0.11646144251550673,0.10376484032561036,9.448068589615204,0.19422896462154288,1,2
57,handbag,0.09920537819608959,0.013811127430558567,9.433628617489006,0.12940589753377546,0.11472901591824457,0.08872468366293382,9.840216483849563,0.3119519636522259,1,2
58,pocket,0.18479174014674524,0.0862867426373981,9.871905403092985,0.13228305513290617,0.13219997340075415,0.11796158321543254,9.654157178981995,0.34387012241014725,2,2
59,handbag,0.3777023481864211,-0.08361512897651584,9.587395260391036,0.14951681780839415,0.14463787680424486,0.10414494563529844,9.672211260510766,0.16986630467490388,1,1
60,handbag,0.2297187601171831,0.22189806227243844,9.681338196150179,0.1340013625681558,0.11443671840616744,0.09761892454959557,10.087747843850108,0.17564317871151489,1,1
61,handheld,-0.0014540654300200517,0.13640987954731779,9.672256784493776,0.1455594813812028,0.1253136669535059,0.07983274156503156,9.659731389460141,0.1453604156405459,1,1
62,pocket,0.27974712446116234,0.14702550831670602,9.833174849069852,0.1392765356219867,0.11494568110700473,0.06278120257030001,9.853441030687355,0.20301477089688258,2,1
63,handheld,0.07065300685160625,0.16859007415818741,9.853485637962688,0.12984444419460717,0.13012984467612937,0.08376918353765914,9.46921955649765,0.19972251097503757,1,1
64,handheld,-0.11341515470622246,0.11937530041937428,9.58076245458948,0.16651770763351936,0.09060613847990075,0.11302092750612258,9.80385823889517,0.23330045525065785,1,1
65,handheld,0.4344010819075767,0.051947268971120106,9.84569096281854,0.15150564089286012,0.1323468884051025,0.12365600163382208,9.71436221962815,0.186166188575523,2,1
66,handheld,0.27858448122415336,0.245558545846437,9.843841031621618,0.18660737458751223,0.12566042296207855,0.0937979609188319,9.763138134621697,0.28458668349992755,2,2
67,handheld,0.19825940042948775,0.12882573773129274,9.711935494092497,0.15718013281908783,0.10080966697860204,0.08110624688389848,9.43378816946524,0.2515236793740135,2,1
68,handheld,0.1581585727954952,0.09011366855918906,9.803254255531987,0.17577064678096976,0.1641669557295911,0.10379454504663504,9.457565351128366,0.271219457404094,1,2
69,handheld,0.41956192510999735,0.10896144152953953,9.813282995394477,0.1354240677112572,0.0928113560529961,0.11377006195358279,9.653457095025477,0.3014794116321075,2,1
70,pocket,0.6730732725297608,0.1064041920213512,9.684757214877411,0.13517585729595832,0.1265954683540086,0.11554383824352438,10.072659800265427,0.263154350326751,2,2
71,handbag,0.27731707778497744,0.08890812752896254,9.694243344244969,0.1944174121394578,0.10085580770791616,0.10389080913853566,9.379934739994392,0.23880620908662625,1,2
72,handheld,0.05555479765081858,0.16353276350094892,9.768932804707443,0.13782168140808593,0.1315600525095946,0.1414055605918106,10.160128441366352,0.2089329312465387,2,1
73,handheld,0.18683017216980358,-0.002303226654684229,9.54714750333642,0.1310170089834826,0.159992809436165,0.1253776529503592,9.563363076497637,0.29487573725947286,1,2
74,handheld,0.2745859008141074,0.006465075711163032,9.674619333348542,0.12657507713925362,0.1355110843418013,0.07554427770658848,9.760772520079664,0.26352260963073,2,1
75,handheld,-0.14242924604877985,0.17711164273143626,9.589964125369667,0.18831501129393097,0.11767907906170676,0.07065058025394833,9.990650552279105,0.260938849324246,2,2
76,handheld,0.26017488026671765,0.09257127911266445,9.852357820299902,0.14450605920670784,0.13857211036131134,0.07739344601895,9.651083999344989,0.21973802934020545,1,2
77,handheld,0.2754637694239618,0.2265671722571715,9.673441737549767,0.15806784160201115,0.1081910226844848,0.1233672297858297,9.679095681513276,0.2650111908392111,1,2
78,handbag,0.408951329698083,0.15906548007582363,9.737637372309337,0.1530279443898008,0.12977955485426676,0.06581483618180511,10.101630028855663,0.2109187793318484,1,1
79,handbag,0.3933184953559581,0.04368465079085215,9.68815880640275,0.13553180903354525,0.12175500405764174,0.10915119415027155,10.014156319888588,0.265500445405205,1,2
80,handheld,0.22667582404343042,0.17901156357544096,9.681651591454177,0.14407394004991786,0.0956683506321024,0.09659995416892715,9.915157688108875,0.23676054027946963,2,2
81,handbag,0.43719553598705374,0.2536629149550723,9.731096628758664,0.1669136774138965,0.15417218586833709,0.07510415109298657,9.703508457309711,0.28577770263831515,2,1
82,pocket,0.5153517478558134,0.16363754673455044,9.636935633519787,0.1254828456308374,0.1448764443275351,0.1049768843337105,9.720897862942632,0.18357575237032658,1,1
83,handheld,0.21419271828666897,0.18987019316801557,9.690151764853244,0.16348336481182832,0.10287713387853614,0.0964711201733337,9.471924073592053,0.2523785436933642,2,2
84,pocket,0.27272806177016234,0.08938749792759162,9.689415700276491,0.17868075329043168,0.14051335763431907,0.11613872352129932,9.668966579038957,0.285140544416141,1,1
85,pocket,-0.05509460296658644,0.2291647859456603,9.667678470013172,0.15584750679976,0.0964504283465105,0.06746028891743938,9.75684552911576,0.25372851392649914,2,1
86,handheld,-0.007645989366163203,0.040317150208442745,9.749105690774526,0.1766680046866545,0.1292584851889754,0.08212877029707484,9.731602262435581,0.17888375414451713,1,1
87,handbag,0.08427055289857219,0.15062516308886198,9.665300406798552,0.12257173275558136,0.12095035930188354,0.08252924900832366,9.814025024581282,0.21277314904694383,1,1
88,pocket,0.143457254322442,0.41834073829231194,9.871111498241197,0.11339915094632635,0.15356789628217868,0.11323291605029513,10.01786861333586,0.31336157718040775,1,2
89,handheld,0.04558154628928973,0.17466572672307917,9.772896410804053,0.1548528868011504,0.12663801000123479,0.09524731649864518,9.362158397491443,0.246461303536782,1,1
90,pocket,0.2046006882034137,0.05951465232897579,9.57506899452586,0.13827309911481506,0.0890967960909671,0.12361595703908645,9.581688032986827,0.20903560682798877,2,2
91,pocket,0.14794362484880724,0.05920493099703205,9.765087794403863,0.16757529923319908,0.14038534956245055,0.09202411395159969,10.026111034886734,0.31271186440459275,1,1
92,pocket,0.3706342847009423,0.10143899632515867,9.641052030249211,0.14379112038912675,0.11118838322262035,0.10441301219513696,10.356551520667425,0.3274834410877176,1,1
93,pocket,0.1387839531774438,0.2121494938075293,9.723569017540546,0.15294384749917037,0.11024533517367179,0.12968480348107184,9.471569665099723,0.1910621648976646,2,1
94,handbag,-0.13300769223232414,0.12749330110008586,9.636880455937266,0.15161967656148995,0.12058396300399861,0.06454136473815544,9.583656909159977,0.22485114556474478,2,2
95,pocket,0.228862675880313,0.0321766624113924,9.490559611262384,0.15225767989801087,0.10850630385588743,0.1005799632902782,9.412841101601192,0.23278147961856965,1,2
96,pocket,0.20787029633829912,0.0319643608653572,9.707826650707162,0.1391470902437438,0.1558963105338356,0.09936852274686334,9.230864014143854,0.27666037672512234,2,2
97,pocket,0.08069251778932596,0.12824591972275765,9.566558424115206,0.12270703736726227,0.1361037525777786,0.08424313598823661,9.808620601309217,0.2409815712744477,2,2
98,handbag,0.22424998252455555,0.1150873984086549,9.751971538873134,0.14561616910562353,0.09712249569002754,0.09672274843178899,9.88856088169855,0.25612150708538844,1,1
99,pocket,0.04871031176604976,0.16459714029428252,9.727478482580652,0.17900083410063308,0.10544896177695409,0.10624359743760788,9.665092781706251,0.2426981534445427,1,2
100,pocket,0.2594759930435014,0.22009878749418735,9.649611545605943,0.13782343415076018,0.09380764816291917,0.08507515982429123,9.667361148219374,0.359994568673371,1,1
101,handbag,0.6049386655394777,0.4372831642891398,9.892553703802399,0.1377130680254815,0.13935453371669637,0.10110815358658075,9.712222928710831,0.27867574907792403,2,2
102,handbag,-0.06084082093601492,-0.06544402201211204,9.586071253269562,0.1531529485373698,0.11866217043884765,0.07960529717486639,9.59784620141953,0.23531957554416758,2,1
103,handbag,0.13256368694862597,0.19242345527437293,9.647566234874384,0.1264579498271577,0.10046725954408069,0.09591380965361154,9.72910505405827,0.2361074007460355,2,2
104,pocket,0.10852423178262961,0.12179692500659482,9.597930841761626,0.1700697633404865,0.15143642611554506,0.11857402943865916,10.086723256997027,0.27365712451545493,1,1
105,handbag,0.14501101747686845,-0.1113491477332706,9.914131603225924,0.1283652909242439,0.13009757444534953,0.11950984724760688,9.533154889143956,0.20224244306330164,1,1
106,handbag,0.3629886869395461,0.2599436868382073,9.845224414164608,0.144214055698053,0.1237105154727656,0.12345535222854401,9.669239407950176,0.2635065469742312,2,2
107,pocket,0.2914239838978537,0.1605407871898337,9.567787813566957,0.2007781674725347,0.12276717364716147,0.09796718955116958,9.70808889926918,0.2579638408699866,1,2
108,handbag,0.33731497539096356,0.2059767551384188,9.627441895834641,0.12714871525888513,0.09284027100164782,0.09346553236562823,9.5981241442337,0.20676904699569948,2,1
109,pocket,0.21457432571303972,-0.0939302734117219,9.63083413415449,0.17944741435054737,0.13118709110136717,0.11475915162342692,9.756981410829862,0.13427109282388244,2,1
110,handheld,0.011685102008271359,0.08354996870021497,9.654927298223715,0.15242496334382935,0.11162250584350784,0.12333758781991384,9.115010172349047,0.16315181501750095,1,2
111,handbag,0.04279719581100305,-0.01950363338731552,9.60572193461667,0.15524636274964784,0.1374130091682385,0.10166880020183622,9.88322851207293,0.23852414772762248,1,1
112,handheld,0.32193895611998885,0.3695721131216734,9.649424896298871,0.13381277535498665,0.1327846493156602,0.13024329370508866,9.496948698193009,0.29535094857243693,2,2
113,pocket,0.23562478476199458,0.24734604148932576,9.810487226906,0.1659750122246954,0.11877848370956734,0.11421168342004365,9.52983835681802,0.22753933814882665,1,1
114,handbag,0.39903111091182575,0.028283866005744562,9.904691233607899,0.14268150374169733,0.11736366957844105,0.08857978450206351,9.698126031646906,0.2933001021724721,1,2
115,pocket,0.25398931548701953,-0.07439666811395225,9.55556018211226,0.12704429705305198,0.15317861343992067,0.09100058940299344,9.39257567344923,0.231666440421733,1,2
116,handheld,0.03254775100018126,0.13328660796605057,9.60588928767328,0.17911320806285774,0.09326283909136747,0.09919043159733375,10.072801566545271,0.19744442416710606,1,2
117,pocket,0.13171472787252675,0.24109064027532318,9.731355944438024,0.1422830221454219,0.10853201827083189,0.06859095496583759,9.534038267212917,0.1860825025101343,1,1
118,handbag,0.29472212245243945,-0.0982064326523115,9.551969436038396,0.11281233105688625,0.14273066060345657,0.08893119966398956,10.398172869865572,0.20367123058493836,1,2
119,handbag,0.31654987443579385,-0.00181296051918034,9.733943202139123,0.14462586197501398,0.14970350631878743,0.12281629164426267,9.897550052629894,0.25703685444248714,2,2
120,handheld,0.3382662948232032,-0.02267016508167506,9.764010278712973,0.16616139025320217,0.11724230230318382,0.126902667636955,9.597926533754856,0.2477198281468092,1,2
121,pocket,0.05272138301922105,0.21403353990927046,9.780065255002699,0.16296723609333325,0.10601361910535909,0.1057206238713575,9.663400714571766,0.23759153856958132,2,2
122,handbag,0.02984547508846125,0.0656205093746585,9.761214452649625,0.13718241727237251,0.10641890890554187,0.1090873611394409,9.77714776808676,0.2396720973137346,2,2
123,handheld,0.1815296220378869,0.07064761731469936,9.656475145284361,0.13045037740429546,0.09131145495037947,0.09380161097873682,10.164680113504808,0.30525204444162346,2,1
124,handbag,0.4260110274800182,0.1309585616766761,9.69183304385333,0.12267645581582115,0.16003499778606622,0.08719700924615895,9.977571559223128,0.34397876866163374,1,1
125,handbag,0.10591975187879728,0.004606302520518316,9.592047241385671,0.14954473656643413,0.11703883212578216,0.11140613059749166,9.958813612221835,0.21310882752791316,2,1
126,pocket,0.27824578359014596,-0.06324240840730776,9.756433865463764,0.153019914825452,0.12929750185624778,0.0912038201017381,9.663607343017397,0.240594481178119,1,2
127,handbag,0.2782591708408447,0.2743622194832342,9.870336026713513,0.1641792136147406,0.12950053229109923,0.13380670358640345,9.5982683951995,0.18893189925333084,2,1
128,pocket,0.32411591245059196,0.28549828501755126,9.75622008990674,0.14701931538904944,0.149676675599473,0.1081718329137432,9.899351252182088,0.24927287490484656,2,2
129,handbag,0.4596660380922315,0.13154989513558143,9.640499926417295,0.14642664468690364,0.11161488759334168,0.10890543364000356,10.073392634981419,0.2342545820597259,2,1
130,handheld,0.4442859637149159,0.1402586606801144,9.809479185269923,0.1444301386348188,0.11302484374808484,0.0788096372898771,9.70549258243864,0.260733318126187,1,1
131,handbag,0.12080912492407422,0.2613216771896009,9.946564669477894,0.15305403398837428,0.13661835093400024,0.05362817850851387,9.568832388712925,0.2939151576249959,2,1
132,pocket,-0.10468431619630106,0.1287984267924488,9.734314977161363,0.14732671088720245,0.08410174226873343,0.10890255115006543,9.481676092334993,0.18951598399368197,2,1
133,pocket,0.10822059969528859,0.05971065128676253,9.765447284385468,0.1687817451103199,0.14980623888710695,0.09006194476156358,9.321622996817961,0.2393723613112452,1,2
134,handheld,0.2213508441070853,0.11472069521329556,9.777770109406605,0.15621689943543046,0.1547626683789803,0.11967942095500123,9.628298384954345,0.23615079191061755,2,1
135,handbag,0.15575320834715142,0.2771802364600967,9.549554273414827,0.15216003876458617,0.12491568372751145,0.08174512323705307,9.676402532086353,0.2579391843476113,2,1
136,handbag,0.5051848414392203,0.1163986002114567,9.668887782731472,0.14916535089402308,0.10124512540147057,0.08937577402637328,9.734984007487087,0.3200215550899842,2,2
137,handheld,0.21281704564746737,0.029674095841573697,9.658613357846953,0.13116350912593194,0.13706245752850615,0.12238915509430509,9.87540981552375,0.2174754609842036,2,1
138,handbag,0.30805678203842907,0.1276402459142117,9.793486664889596,0.1499869491580596,0.11617930845626405,0.10873586632155278,9.622808059570483,0.280459417913489,2,1
139,handbag,0.24258214644710152,0.1887467765042917,9.781836930789408,0.13706943560361617,0.12284425725316138,0.07997356299195862,10.188821124440185,0.33360988514080364,2,2
140,pocket,0.15800502247637668,0.17435041938868384,9.697926325726707,0.1569310205418463,0.12436951305970899,0.1006801433892789,9.455326372869948,0.20770254359989937,1,1
141,handbag,-0.07872175169439996,0.17633887376859314,9.65261219409913,0.14582281900894747,0.10683329409277022,0.13807460455293188,9.910692469905616,0.2573623200177753,2,1
142,handbag,0.1982073542187772,0.010798678503988385,9.541340404029322,0.1832862924284862,0.12694525645668223,0.1028726279248255,9.435110474706084,0.25692686739020854,1,2
143,handheld,0.6981970939731189,0.2024124279870148,9.708458747139174,0.12476098615544945,0.09073446375828474,0.09703921204265314,9.52738613591689,0.18518912106785262,1,2
144,handheld,0.023331240024324934,0.1134159127054747,9.614543188522118,0.0879896336924926,0.07608509079401075,0.11790465938907338,9.810250199906998,0.2789582899131227,1,1
145,pocket,-0.06223095665613368,0.0245850599036654,9.60214986604219,0.15535326075848857,0.1272876406111198,0.10704547508636164,10.000918591412873,0.3061355912629373,1,1
146,handbag,0.5004583953853365,0.201458205638244,9.80262687641226,0.1371350682061394,0.14087269232368488,0.12887332551268263,9.670114138438127,0.21659975856237515,2,1
147,handbag,0.3213124454804002,0.055563338129988336,9.792191979504679,0.153221212128258,0.10972926494767007,0.11510195139293075,9.76115349339194,0.2355179623131425,2,2
148,handbag,0.23811298207851547,-0.07891568182666638,9.66114058419005,0.12528724353025295,0.10860597224969205,0.11813087653202045,10.055683072757331,0.16265172133289296,1,2
149,pocket,0.41440107935505865,-0.010072285733238637,9.553095571869237,0.18817919482530823,0.1329505236190332,0.1298461705225146,9.434464051658386,0.3025995824496419,1,1
150,pocket,0.08527470855658549,0.08820356803435006,9.627418841975631,0.1422697759484069,0.11958588555395247,0.09401895180237768,9.932470683906809,0.29326809237109874,2,2
151,handheld,0.19401078586280224,0.1793962738533535,9.80932539613272,0.1358410885841285,0.10867811061454394,0.08802473102753827,9.56773353606692,0.20221080751775883,2,2
152,pocket,0.35327311753512347,0.006311605749429072,9.756771861697626,0.18780984323353958,0.12610569612860428,0.07308539114149817,9.800773944857747,0.2078809395142912,2,1
153,handbag,0.5265531551730593,0.08112050474749584,9.662819520257765,0.16680686300800818,0.12012731778116609,0.09578304455678839,9.874934126145533,0.23011230121044668,1,2
154,handbag,0.034718352801508756,-0.035992867799566966,9.715875317687692,0.17779021288239824,0.09501413579066677,0.07382783294353924,9.446064258857652,0.314600006026735,1,2
155,pocket,0.40211016878405914,0.22784394994877732,9.502517808204319,0.14655646477841477,0.11782349377569926,0.10730971181356912,9.553359987360224,0.24639180686946918,1,2
156,handbag,0.2672758591261476,0.3160797336746662,9.494947561296522,0.15093819616329712,0.1236587349564191,0.08773022647063719,9.906464464321182,0.2575886908525999,2,2
157,handbag,0.2344591601144124,0.30311390293859847,9.907712652052107,0.13806547409001443,0.10932433315561288,0.11924668521756863,9.674972356146487,0.25759554697085135,1,1
158,pocket,0.20884061666178927,0.22579754605833652,9.760652621833966,0.13573055162077313,0.13851505127407238,0.11557356292421109,9.56158460272659,0.3186342808623206,1,2
159,pocket,0.0023030068958095062,0.2135011948544314,9.710166206425926,0.15796477158117997,0.12966658362133,0.09220800301036423,9.788683063200404,0.2313442017353907,2,1
160,handbag,0.3544633497319548,-0.1386255429283843,9.670304381599175,0.14263095289655237,0.11445852456883648,0.11952584373420785,9.470145574522254,0.24321632905884855,2,1
161,handbag,0.0926596469510508,0.13126078786641263,9.533816601046853,0.1944163824073908,0.1226729960894493,0.10298471466360824,9.444339824007088,0.30871836848187734,2,1
162,handbag,0.04804639462464794,0.05046888516081103,9.80932141274861,0.16685050715660382,0.11247098647994314,0.0645747658401132,9.142906081840628,0.30817816365109396,2,1
163,handheld,0.3428188438350507,0.2156559633253881,9.596311123686961,0.18766523133733484,0.11551395254504689,0.0802273569879202,9.829947490571097,0.1977858383492567,2,2
164,handheld,0.32837010377200176,-0.19451174508175945,9.780418264533349,0.10542639631149292,0.1162497790556937,0.08551673964146403,9.747998019003637,0.15269074911074632,1,1
165,handheld,0.22185001254165937,0.13315612433242138,9.723200076554257,0.18790842013574394,0.08459728920726242,0.10020487552575064,9.875147524705433,0.249639914784934,1,1
166,pocket,0.37193154312174614,0.0842667459401117,9.704790553587651,0.10230107237953011,0.12054802148972156,0.09141884071251016,10.045464812620516,0.28233540399980755,2,2
167,handheld,0.4238904872218673,0.2442115919517685,9.579763368093541,0.12478177728646367,0.1263668242602209,0.08942036662461247,9.679672136371602,0.26575386898626985,1,2
168,pocket,0.4062336116738311,0.2957584464409686,9.58109499953274,0.11494705967734756,0.16922986981466603,0.11161940482161035,9.722614048893753,0.21939651357154516,2,2
169,pocket,0.130758153989703,-0.0014615220415321872,9.74899343863126,0.15486098280693703,0.12879766190776937,0.1157383280987504,9.825802926141883,0.3431965713260685,1,1
170,handheld,0.3621157396919568,0.003954747692382188,9.717921682442002,0.1496360590493678,0.10694167838584367,0.08762896161426813,9.597480638687047,0.19656973848686904,2,1
171,handheld,0.24174614662629731,0.13765959454540563,9.714716707326339,0.16589838388525469,0.08718374520847709,0.08300530331890149,9.375572744292215,0.1818107485245391,2,2
172,handheld,0.4688861655528561,0.318051522982585,9.73860415925137,0.1482307143673163,0.09887393161728941,0.12528402847183184,9.452098844743357,0.307724352671267,1,2
173,handbag,0.19144074955992404,0.11721736127396193,9.516325650987296,0.17450200584935874,0.11001418183027259,0.15452158350030848,9.730045798231325,0.2289850327086193,2,1
174,handheld,0.1565292543947504,-0.04349936984251966,9.81151438399405,0.13134613492938257,0.1103708158220211,0.08116198047560129,9.989947821265059,0.33492839649254796,2,2
175,handbag,0.1179304684735685,0.037295786460404864,9.674410025938565,0.17496325622536785,0.11525145997184572,0.11782279451762458,10.13183092317462,0.23752214009658745,2,2
176,pocket,0.2383931841353333,0.1343196997356154,9.826964502212045,0.1493851865327844,0.11195384845802724,0.09721948258579241,9.668824302367428,0.2305945707717896,1,1
177,handbag,0.28000882013881556,0.13882429142767475,9.509167599521417,0.19711720401296168,0.11538199850389014,0.11351970348389935,9.781961523752651,0.2748316702350997,1,2
178,handheld,0.2828943424390906,0.025509483728915205,9.766902600552744,0.16743814019923425,0.11155380948904788,0.08094101211065788,10.207701744729654,0.2927500391126271,2,2
179,pocket,0.2623758810467785,0.03490511674644539,9.765957929779427,0.14392676660956846,0.12036831476465952,0.07496504130811575,9.869205228937776,0.3580276724955811,1,2
180,pocket,0.3106555519019709,-0.007788159346767798,9.561386732664335,0.14931854083061444,0.10193200410343622,0.07754513152981188,9.774304431005547,0.2931003564690694,1,2
181,pocket,0.17661872461284028,0.24694054206245547,9.646074388239787,0.12981768231168744,0.09482459690181833,0.08871723565307815,9.79253976419448,0.3035538991686213,2,2
182,handbag,0.07912270266121929,0.009826978484793247,9.60404936040498,0.15718720326043537,0.11523877022734666,0.09530583366112481,9.885490320719747,0.22105270167745436,1,2
183,handheld,0.06602580046295281,0.05422469552980594,9.796321262250526,0.14391607639237608,0.12867923285045282,0.1189025488632018,9.434925211220111,0.29794424370902145,2,1
184,pocket,0.35625766429552025,0.050809650017125715,9.740888848288925,0.16448336576718053,0.09761923129072732,0.0833307222650819,9.930135715757984,0.2812798860186743,2,1
185,pocket,0.2805483465792435,-0.08271486970184695,9.869884882590176,0.12324001684839145,0.10850801395050966,0.08724342094882137,9.849779022403565,0.2209293033034705,2,2
186,pocket,-0.06837566564254857,0.006390163421862119,9.730295393428197,0.1434065440872192,0.11707709509202656,0.1416103734875945,10.01205927009718,0.1812210580753189,2,1
187,handbag,0.37451301401999104,0.2573765119143846,9.783224418688956,0.1268095770797067,0.11659412120516202,0.10106751462052116,9.863530376667688,0.2048535503115934,1,2
188,handbag,0.4920652719603982,-0.035114541014887354,9.82720107413805,0.1280531715235236,0.13505694365063217,0.10570635074534979,9.995312136757494,0.22417057791308637,2,1
189,handheld,0.10261247238622008,-0.005637076219164108,9.765442672650774,0.16212100334531446,0.13879657737671738,0.11490613183108715,9.509281083788963,0.24028035980050405,1,2
190,handbag,0.26042400694140616,-0.049905492853511105,9.671581679704824,0.17249012676334569,0.12444039789162509,0.08952321983418779,9.59089245376467,0.28729436378257284,1,1
191,pocket,0.13898128595514606,0.0991266127722487,9.652970555473848,0.10334909317494248,0.14418836602031257,0.09963310671784877,9.778176743753775,0.29734504915959675,1,2
192,handheld,0.304246038820675,0.3362572065519548,9.702026657247147,0.18723749062856815,0.11261955437264759,0.0935508646751211,9.552197461644198,0.33744085290145287,2,2
193,pocket,0.03509866663871622,0.0940766934167514,9.78965837898101,0.17808174287430606,0.13680396605110812,0.09833921813693697,9.95387158125464,0.2713225051839974,2,2
194,pocket,0.19928315143518288,0.11801145504252676,9.633389693814706,0.12306648554526652,0.10773974358375353,0.11686485356405099,9.386115627782356,0.17734499701492767,2,1
195,handbag,0.35719711919981717,0.014546331695961368,9.775215352617971,0.16653687054985689,0.12592026850455248,0.11349331966802799,9.700101293247668,0.2049554389268101,2,1
196,handheld,0.39535676089482596,0.10260583462492731,9.742263231831032,0.14079628016350848,0.13288245747920366,0.05435438506491353,9.598376458423951,0.23854145048905925,2,1
197,handbag,0.2739743728379533,0.2574860367617139,9.584669387680053,0.148037988661392,0.12112291887901908,0.11995756612266828,9.554394735443497,0.3035356350437593,2,2
198,handbag,0.1591432045185391,0.12714912651658083,9.770353525919043,0.16204109115269155,0.10070010569593502,0.09308548533123462,9.397253169349472,0.28108300916210033,2,1
199,handheld,-0.028890162651541262,0.3658124098474596,9.724192101285237,0.15959991704278043,0.0865488725760307,0.10789607409772073,9.750450117977806,0.2120469958992595,1,1
200,pocket,0.09636754331410774,0.26113756547668293,9.654947578880972,0.13854007617465902,0.13113821321096608,0.09184869489220533,9.719223118633366,0.19431822119297618,1,2
201,pocket,0.13960898928678295,0.09964203854660804,9.722742857271427,0.13845535386466576,0.11453953407561604,0.09896390063029689,10.216096270082538,0.21828392030163934,2,2
202,handheld,0.10533993250475789,0.09730545492894617,9.658834897671595,0.13963546991785675,0.11594180515436905,0.12630580229495472,10.361980101808724,0.18814425609010083,2,1
203,pocket,0.2189329452470423,0.30571077651483575,9.734767206468979,0.17285655156832924,0.15000217896347548,0.10672151211981183,9.473008180345769,0.24401807365695435,1,2
204,handheld,0.15871683957430727,0.1264790691026275,9.693203963035346,0.11276367657073008,0.10107542479927635,0.1252834254818528,9.264246398991226,0.2722465961733701,2,1
205,handheld,0.23581820585031646,0.27907058723260675,9.55700757679904,0.146761718921899,0.13480705094121304,0.09898062081563898,9.43983554302246,0.2647953155313104,1,2
206,handbag,0.3903940951571495,0.3503488808152,9.696196437811777,0.18145093809722107,0.10524575737895617,0.09690182650800427,9.724535089985393,0.2262434458419655,1,2
207,handheld,0.14903066681559576,0.08549367586110689,9.66573161045692,0.16407407101816282,0.11645385701613353,0.10024356130316003,10.021292712469725,0.251408748978945,2,1
208,handbag,0.002569953411866277,0.15223464391220187,9.77355863542988,0.17101928110332731,0.09828197041279042,0.07461046467088073,9.619634427014129,0.18468077613394088,2,2
209,pocket,0.10474386028126875,0.2276005021479655,9.797976849594574,0.14703882775522356,0.10510616703677525,0.046179827946153336,9.884569450959374,0.2157111203654092,1,2
210,pocket,0.2975382704959908,0.20210000468270237,9.65909982381695,0.12672873640547905,0.12826487083433302,0.08438528214274502,9.540239804813648,0.2655523232252763,1,2
211,pocket,0.31169156774290097,0.20125888795046015,9.631060452341426,0.1511137511414113,0.14587990958547942,0.12054466879840008,9.618219388959353,0.3624891207490973,2,2
212,pocket,0.2709127795524351,-0.05001685926132819,9.541984595224104,0.13622128921664842,0.12847006612469036,0.12841075112042202,9.78169915526858,0.3173513182659326,1,2
213,handbag,0.40511059588320236,0.008189992620584105,9.62859628769826,0.19461373025457152,0.1261167316585387,0.059952722824502834,9.737216339410702,0.18457254154311903,2,2
214,pocket,0.18204553951845218,0.050567957487057495,9.677673122560774,0.14683646348785243,0.17098140411375012,0.12573354655568697,9.730985406670609,0.29221860392980575,2,2
215,handheld,0.5178249222013986,0.2557304964162411,9.576073666384579,0.16274917986209952,0.1312113102225833,0.08815352290712274,9.469550250980381,0.25876893731606193,2,2
216,handheld,0.33272807041588603,-0.03824498885522633,9.799313659233023,0.18404784070295882,0.10132757945473642,0.07147199948866934,10.046473452119379,0.2601661560549871,2,2
217,handheld,-0.1685231205311816,0.2927872048614607,9.73621619604407,0.1280650163466691,0.08633441347973822,0.12118453418472522,10.044582853515061,0.3776100403807213,1,2
218,handbag,0.48009879449453496,0.20358009368944197,9.69795832859801,0.10440540389727901,0.12758299490074407,0.08989112349115598,10.048771066757094,0.225732018657465,2,2
219,pocket,0.09495200847964173,0.2485076269667329,9.708332869560488,0.1598002749882622,0.0918695805266747,0.1523107032547828,9.570693912242568,0.27639562750626606,2,2
220,pocket,0.05488482158146038,-0.0015439692693998558,9.740604495358513,0.16356654791567254,0.09997086852702397,0.08653514752816947,9.769847553934463,0.2884211998867066,1,1
221,pocket,0.28856566647493403,0.11867628352281563,9.773309497786952,0.14171806397985653,0.12606603036829922,0.09447290065081394,9.608781295885283,0.21525568237528098,1,2
222,handbag,-0.05072707085048153,0.14587313433575794,9.790900763684727,0.12687493537713745,0.14079844975143987,0.08047016035651422,9.496320823351049,0.14535330992427725,1,2
223,handheld,0.105679615301758,0.14059604024272324,9.679086900468693,0.15619638211141856,0.11428610129758353,0.10299801047041383,9.811240770061497,0.18353258165872938,2,2
224,handheld,0.44356478109363107,0.14547888810160609,9.695806505321572,0.1495250667544579,0.09587727718934601,0.1159412994294103,9.209415394219949,0.2627477699892899,1,1
225,pocket,0.2934326368496254,0.0768168223525866,9.727297010594418,0.15644402861664583,0.11707099122787501,0.06539448952358967,9.95171003814769,0.29481358648986455,1,1
226,handheld,0.3318359671408829,0.12622484972763914,9.691723867201537,0.12734088273557212,0.11455823690581049,0.11311597340326,9.449325549241093,0.27705565664369336,2,1
227,handheld,0.1114634099253789,0.23402767460782242,9.797231741588687,0.15649591173009197,0.12235387069129368,0.09182675062514815,9.661746376151081,0.2764505408271314,1,1
228,handbag,-0.02075549984521549,-0.029981477012906807,9.83273224381381,0.16639070729624914,0.09595006334897185,0.08278182837356496,9.172719099448045,0.26671702368688566,1,2
229,handbag,0.31602261439706014,0.2956460142686484,9.744407331452816,0.11988223822030156,0.10325701439378294,0.0719754345665925,10.19193940253,0.20867323152219486,1,2
230,handbag,0.34953842343629254,0.22782787476421368,9.619180835870678,0.17920833217329113,0.14047115726749407,0.11957247000714291,9.904556095335751,0.2486139229203691,1,2
231,handbag,0.34274900791216645,-0.005824227121999981,9.760840112083208,0.15508985548435375,0.13522500999358844,0.10573375359709299,9.761467941872707,0.2814036619380576,2,1
232,pocket,0.2413603845176798,0.15606032521463858,9.748369905421084,0.16701888971830126,0.1432817444474304,0.08835842513731842,9.56796726420172,0.27355923664103143,2,2
233,handbag,0.0649397634791894,0.21817985313896535,9.610795797468251,0.12442138742534917,0.08299012295859803,0.115589180014141,9.473568316173047,0.33196917429510153,2,1
234,handheld,0.5756654382089595,-0.03823519886628206,9.748259995932873,0.16365169976754973,0.10227738834008389,0.11059652287234245,9.689922673535524,0.22089069498130046,1,1
235,pocket,0.2819681164476263,0.1150374120051921,9.6555809481354,0.1171071646259071,0.13981818553037006,0.11735694808802752,9.81555274106131,0.2218125017978024,1,1
236,handheld,0.18391700376162481,0.10057816389979926,9.78460938150773,0.13103506746669832,0.13184663787186832,0.13281197792613308,9.68253920455789,0.21487411711266233,1,2
237,handheld,0.18458261437749485,0.03253033489917266,9.760027052180002,0.15526734857005423,0.12814611230884307,0.10435036770022606,9.872729940260742,0.11335997083834531,2,2
238,handheld,0.23243962171103305,0.12108282041168159,9.732298653883573,0.1444809966921527,0.1127522370231875,0.1386475154363466,10.203932370172334,0.28070518663633154,1,2
239,handbag,0.3704412393236971,0.03796561088446518,9.713854673388918,0.15054994337544456,0.10759657448896652,0.12855159211309283,9.4717116799255,0.25021138917793334,2,2
240,handbag,0.23844421849581787,0.27491684827648843,9.496662792666367,0.18854773686742238,0.12064461931793982,0.11566882841257195,9.799121514740005,0.23781715459543484,2,1
241,pocket,0.33877697301712456,0.03480268144071079,9.588572489534267,0.1502362863464519,0.1110297551011799,0.06617538845029805,10.17530395179953,0.20923743222947627,1,2
242,pocket,0.2327096531839811,0.205037472801579,9.696919878021014,0.16419403437755173,0.1305622304366009,0.10219584161539727,9.662311512970257,0.27758068042091255,1,2
243,handbag,0.19314691627944286,-0.08864636651441972,9.861938354780355,0.14866468142408218,0.12074260826499261,0.10492651195619242,9.705239671357802,0.25086637253714045,1,2
244,handheld,0.30618755899925837,0.09058282353800465,9.76646810681328,0.1480723059366462,0.10057688938048939,0.10431142311053541,9.855315013364148,0.3272376516618948,2,1
245,pocket,0.30049290505106946,0.11147733888216306,9.891404632905893,0.13043464346541314,0.13269881346970125,0.09780385065655346,9.909024322440684,0.25121066374044204,1,1
246,handbag,0.18455488213572674,0.08668507392613634,9.718298719365425,0.15736244450945935,0.1450855848591775,0.11292099825803012,10.00244248744469,0.27095101746365285,1,2
247,handbag,0.09761895634286111,0.06244180433655308,9.706914923617473,0.2007095883737188,0.1464206805143696,0.11558311693483998,9.767319458802893,0.3286019220655886,1,2
248,handbag,0.2612593372110652,0.02989819695858531,9.852512518658704,0.15175725946686455,0.13346841490851447,0.06655657424504005,9.541285978026485,0.2334847955400235,1,1
249,handheld,0.22175230034438906,0.20054489360178834,9.694078569516066,0.14465983997571086,0.13374159193277882,0.12709680472167406,9.880190650219584,0.22831394609151665,1,1
250,handbag,0.12676924308438636,0.2299349426114456,9.611353009351882,0.17280281120104612,0.0967757237443631,0.07047096137505258,9.498271460007064,0.32132889135761505,2,2
251,handbag,0.08363992761948047,0.10014069369720197,9.741675411761737,0.17045605499923058,0.1065732825751937,0.09188201824758069,9.82298946403213,0.17204365876410993,1,1
252,handbag,0.2715713765841684,-0.021596500962596757,9.82225139819924,0.15878114794257517,0.11663309403040825,0.08224844679669747,9.759312798438968,0.23701910968188974,2,1
253,handbag,0.29251425855415414,0.32527391976641934,9.627405248691879,0.14383262372101507,0.13185148308146138,0.08556472486244986,9.753184889575374,0.23578999428317055,2,1
254,pocket,0.15599518280177088,0.004424308051054315,9.768904353967804,0.17288854919288246,0.10799317358227682,0.1217306606630076,9.719425642317098,0.2077844550036262,1,1
255,pocket,0.12300944461306114,-0.06513067101797766,9.700676349133568,0.15241860002823904,0.11386075362447699,0.10243239608675703,9.990476289707908,0.27641913889592057,2,1
256,handbag,0.08546172164442142,-0.1315146299823724,9.755134978456706,0.16827520804315788,0.13119226622274888,0.11365198262524004,9.894510278130591,0.22149468185524143,2,1
257,handheld,0.2673382408717378,0.12193422762951925,9.74135338770451,0.13361405120366918,0.12274218119208573,0.11264031676894565,9.913642015147245,0.2552676072823001,1,1
258,pocket,0.0894034389538895,0.08391003373817163,9.668569560836419,0.13826580183702425,0.1266773699888298,0.06169908773780087,9.624087925692384,0.203366403652409,2,2
259,handbag,0.5461701853531096,0.23371479789756072,9.699381213895146,0.15193760015697105,0.10443929047859225,0.0888451687302685,9.329480309818646,0.2642735490442223,2,1
260,pocket,0.14845778460435044,0.18333014761346567,9.67467721732662,0.12529585468963042,0.11359064202354036,0.11497144963472256,9.64071909749666,0.3539839347421156,2,2
261,pocket,-0.15378214168089013,0.14482414695020454,9.721874822003974,0.1426019790906395,0.11060920283257392,0.11313675966246547,9.8489387500454,0.24738071774901552,2,2
262,handheld,0.20547425000562977,0.07743593654447006,9.625390279866044,0.12440922097375642,0.11998128126282027,0.06486647873188259,9.748099410746885,0.24950187579796415,1,2
263,handbag,0.1990449780271796,0.24319727266372,9.649291506450519,0.11910494569767463,0.11133745795912393,0.12060054250357849,9.631806391278499,0.1906402177956984,2,2
264,handbag,0.37675778512862823,0.3340867882103039,9.668603959448072,0.19871985352932797,0.1086234691240939,0.11232111891837235,9.795357729474018,0.29212377840989473,1,2
265,handheld,0.25321893550915564,0.23107750389558845,9.74917029056214,0.13782050477627966,0.12250055157382936,0.08074415393076628,9.67320202981807,0.24568488147140982,2,2
266,handheld,0.08492472248402966,0.05437620429809481,9.568446607071182,0.13957934142824358,0.16193459366367405,0.10817256556508725,9.752199816982715,0.26964383010140386,2,1
267,handbag,0.16704121897548352,0.203787866465861,9.699287036515909,0.15160438197998283,0.1316713607672959,0.09541776469794302,9.242798626576661,0.2974584699480761,1,1
268,handbag,0.25911296574764814,0.06174923294393421,9.639179100244649,0.12876524935170006,0.0843957134966779,0.10983930783254586,9.93178595615931,0.24094764254274775,2,2
269,handheld,-0.11470713754656162,-0.022608077903196924,9.668858808631507,0.1399666385422854,0.1270259055466193,0.06399527797981128,9.893205924253468,0.3010472416328551,2,2
270,pocket,0.41079326015856765,0.0021153125453665794,9.643983080248491,0.18668818337002896,0.10970196676658081,0.09294790274516798,10.268062295879188,0.30431441454485836,1,1
271,pocket,0.08532451712930028,0.06701859150347053,9.729457198091632,0.15716199165782493,0.10117854522919485,0.12361433804804141,9.56201647016882,0.2669928267462041,1,1
272,handheld,0.42255657314214257,0.12247516147562527,9.694288670508111,0.16972163484864264,0.1340770632789787,0.1107763834434108,9.614201722327195,0.25997215117816486,1,2
273,pocket,0.26886977116898825,0.35726973830905506,9.78116102236546,0.18147186066669896,0.12154363789444213,0.11583281729428094,9.783565946230317,0.25139369813849954,1,2
274,handheld,0.30443912045909616,0.004197262926575893,9.750173140541666,0.15421298972727876,0.16972743397757648,0.09532917507582693,9.731472833607977,0.27808231943176415,1,2
275,pocket,0.38241351540019086,0.26881861876295937,9.556295391560996,0.1455750898689716,0.11771451890126258,0.11128691899281011,10.134966613103346,0.27583079724534104,1,1
276,pocket,0.2959698079038747,0.07192885379689172,9.614000094270468,0.12132291084723405,0.11547548460704778,0.09673821987158425,9.63791718984148,0.17849387676864353,1,1
277,handbag,0.31093293244761766,-0.1319661984934412,9.6926892713876,0.14234213106450708,0.1439429737674127,0.08150319708686077,9.701569105211883,0.21641514224438685,1,1
278,handbag,0.1853375339307928,0.04931287964835946,9.705706480599693,0.146750044713287,0.12043942434367898,0.09495689757684354,9.599445979545548,0.2978614347173736,2,2
279,pocket,0.2658253022208143,0.2512036391801229,9.622821923025418,0.13385443980681747,0.09885519688806052,0.1290808008980554,10.120905760480126,0.262407458518297,1,1
280,pocket,0.12187532775423854,0.1513603423195083,9.840397437051456,0.18090450818742748,0.10238475104861963,0.12264642719561207,9.861799093319226,0.23913937347802278,2,2
281,handbag,0.15848833506180487,0.15853414383967482,9.796468774077224,0.1720458912564102,0.11343123951980719,0.08015596220962616,10.132721468044608,0.33809486283028495,2,2
282,handbag,0.5047042571953363,0.2694204810613256,9.545525915750245,0.1697108434815273,0.1331527655712374,0.09165317258995198,10.468765858715646,0.2905995934943132,2,1
283,handbag,0.08877096224243675,-0.014360354672287315,9.744542636035849,0.14767594719482444,0.1454425502981694,0.08151523564871879,9.54929635232741,0.3039914113771494,1,1
284,handheld,0.2331475689954421,-0.016210051611070017,9.705420346327756,0.12933936298691606,0.1360389843358475,0.10359046347734266,10.00954847402434,0.2389670214580586,1,1
285,pocket,0.22702035550732141,-0.1616474331155709,9.834387504057126,0.176560030284342,0.131360640251768,0.11994545646229135,9.67581557756811,0.2692739552802199,2,2
286,handbag,0.16338682923288012,0.21524984854913415,9.553011607245638,0.15670722569348763,0.14193751171528943,0.14063586834584815,9.568089576445121,0.24592822983174345,1,1
287,pocket,0.28716014048556565,0.17749810803555238,9.915985481124006,0.1654616474470855,0.13242345264557212,0.07145095602308783,9.373429296418957,0.1982425230015153,1,2
288,handheld,0.2984583139112074,0.19687598235093368,9.625705433840006,0.16238494669166043,0.10193543437384803,0.11716694690699295,10.27209161048677,0.2598472565589875,1,1
289,handheld,0.07112712252786313,-0.031961346886813666,9.747852681893203,0.1562125450871433,0.11558483872412695,0.09984628744842029,9.990508728726816,0.24711921494344966,1,2
290,handbag,0.2252035067319827,-0.08250987471038233,9.649364302309435,0.18999231633016417,0.1096950855658556,0.09265726051937427,9.683642846573738,0.24628438363946475,2,1
291,handheld,0.047644899184146466,-0.0483541970119999,9.672384108123898,0.13685212655339904,0.14524552889218514,0.08129416370160994,9.895483628761374,0.2995357506078256,1,2
292,pocket,0.32828229274759513,-0.0007086726830445172,9.541058201051976,0.14382140896317624,0.10090788463936957,0.13559721874198566,9.287756031202271,0.24446201821099733,2,1
293,handbag,0.2364730965543938,0.2964750690695425,9.829688676391656,0.18282317203510642,0.10129644473769957,0.06742271543694053,9.716404787323714,0.2535031665076598,1,2
294,pocket,0.22234948300756308,0.2300152068539002,9.68303526477585,0.1516412683101481,0.12339859132041676,0.09020489694103151,9.549520275401585,0.2559383265646588,2,1
295,pocket,0.30885470233086043,0.05501352312556157,9.689834208730034,0.14748133133040967,0.15858041380793808,0.10734593813230832,10.101392629947542,0.2751343356618848,2,1
296,handheld,0.16867345642973985,0.1459102391911982,9.941248190551608,0.14493985730402445,0.1346978145786982,0.10906576784547845,10.118197177062505,0.26490149172641614,1,1
297,handheld,0.34710329388273065,0.028596530462271355,9.80594427089966,0.16358605225887518,0.14083352379939337,0.12493595638072466,9.96261291534064,0.28434917656522674,1,1
298,handheld,0.06773326908657962,0.15371357129379884,9.643163872382768,0.14541430347823822,0.09786397348030812,0.0823863886260012,9.976840781236643,0.1858416129321438,2,2
299,handheld,0.4217814778341791,-0.026571488529039775,9.648974409963554,0.14316893335967407,0.13337603023353006,0.1124877378839629,9.577533118791258,0.2572111693835101,2,1
300,handheld,0.12736332261677194,0.20003017351687175,9.735980121059487,0.16325631232800067,0.097776218006164,0.098741309618685,9.91923870664736,0.24439434415199587,1,2
301,handbag,-0.04442686015433814,0.00803560428987285,9.787072991351378,0.15186514332776074,0.13461871130872285,0.10080434217351113,9.39515418221968,0.18418528880332072,1,1
302,pocket,0.16071976373059021,0.2067098034251788,9.885244204980815,0.1298110601949104,0.08858317958376222,0.09080845536334543,9.36145906835517,0.17786024531091804,1,1
303,pocket,0.14370477041186863,0.05870925101667896,9.549190064121118,0.15064032835270474,0.11321758574295078,0.10323732850644093,9.713629710024394,0.2186052676509555,1,1
304,pocket,0.15958890207749452,0.015190885568207135,9.782701930735408,0.1778906300392555,0.07893764055931823,0.09715227343301269,9.872549015276196,0.21740852204164068,2,1
305,pocket,0.24474720232259742,0.30355960606995874,9.798766931143506,0.16530612291823246,0.10230575600131658,0.0928749004758655,9.889533796791145,0.23803846572761345,1,2
306,handheld,0.37467635413324085,0.13123354218725186,9.631049314866463,0.18035959342847258,0.0915078682516817,0.08949594130678844,9.425744582815012,0.2564080963267139,1,2
307,pocket,0.18124411291542947,0.07133823547417312,9.673974009847273,0.13537400141714911,0.133023659452158,0.1074499109766238,9.352106983821768,0.2747046176088333,1,1
308,handbag,0.10625736452716486,0.2009813970021517,9.546966835544424,0.1714045954949406,0.12188777099423768,0.0733821860289321,9.627113224594575,0.1880955699437242,2,2
309,handbag,0.04101797815743041,-0.05079892834898621,9.659910630434878,0.1370296626807172,0.11064931031362761,0.09615303627068225,9.520897203430359,0.20483097851064172,1,2
310,pocket,0.13977258130364334,0.24282363071124302,9.733209408472245,0.12535214157878113,0.122342450306462,0.08464565093269864,9.893004391636744,0.2065249383798654,2,1
311,pocket,-0.07317372588755292,0.09326663523098608,9.869411746152203,0.13393872566523113,0.10338121708386404,0.09754180532963132,9.486784414170524,0.24405194318856915,1,1
312,handbag,0.10123003597254583,0.1820945258802125,9.878636545894866,0.15262820526788926,0.12643721409592207,0.09779592499173917,10.226075522011012,0.2514036661593861,2,2
313,handbag,0.39660808437932793,-0.07574481532277035,9.607070049838562,0.1705590309964696,0.11844553201092461,0.11733705458263935,9.830590051586103,0.29995402992249043,2,2
314,handheld,0.08649611931323656,0.06410888502404052,9.855785917985681,0.1562083128917313,0.16561788270051553,0.11318030238788881,9.703268369381497,0.20414700080062206,1,1
315,handbag,0.30430737912004574,0.11054961672145809,9.515065474478916,0.14693436641266217,0.15267027711635253,0.10583591670580894,9.453167755361378,0.28876530679021206,2,1
316,handheld,0.02602768652872653,0.23363590563422343,9.651507008143172,0.12935577200027198,0.13881119768030506,0.10345462288837431,9.409717873933733,0.17595251711840632,2,1
317,handheld,0.47566438489658314,0.19164932767249793,9.679818989292322,0.16410662663132503,0.12584645920841467,0.09618275162170814,9.659770689567186,0.25096092076391097,1,1
318,handheld,0.4856410099597065,0.06290275548590998,9.735178939075436,0.1692724527157863,0.128407146215553,0.09581306518712428,9.59528991997948,0.27758007212385044,2,1
319,handheld,0.29865323348398143,0.14815373087880576,9.72065103405469,0.15596567213052778,0.144817784550726,0.06504271695561964,9.307042840079287,0.2816698281991927,1,1
320,handheld,0.5086878902465282,0.2607882922072378,9.746569852421807,0.1289536275202097,0.12576284728759507,0.1146749859835012,10.0829082453821,0.33456800806199993,1,1
321,pocket,0.2633689462391493,0.08600138198929279,9.69170425744898,0.16617418259371075,0.12699330541792314,0.10533052280020055,9.46369508815186,0.36888996573840965,1,1
322,handbag,0.3252775671224334,0.0729362047477631,9.805958868837951,0.17454489485189506,0.10847042263476772,0.12400748384538228,9.828153392760411,0.27026998206769065,2,1
323,handheld,0.3992900815097302,-0.11676455713034949,9.779183563741073,0.180660337439556,0.10625365713920137,0.08890874180374819,9.850551298406662,0.18408984953887864,2,1
324,handbag,0.23695776796476736,0.07651131975886279,9.68104371285529,0.14124605988548566,0.11785536657374306,0.12520739402017333,9.335288921380993,0.4404582553608971,2,2
325,handbag,-0.022856619237759196,-0.0987552446421426,9.794239369019035,0.15872609711602398,0.06770516014400016,0.09616356678183839,9.643821070853921,0.3071051592351882,2,2
326,handheld,0.32834450328515963,0.09627983851601514,9.91684353405211,0.1393093648395483,0.11941864280702366,0.08853679559941369,9.38759172722786,0.3015157864543647,1,2
327,pocket,0.13922106083498043,0.22857621718912963,9.642674154521034,0.13155277128443152,0.11515688110594917,0.13090889244716372,9.841899691195161,0.2286434510145453,2,1
328,handheld,0.150370526856681,-0.14435673700561785,9.877533651593408,0.1816640835656666,0.1375805979825379,0.1072778576082765,9.75562922438401,0.24390570206873896,1,2
329,pocket,0.25468423747180347,0.2581050589544948,9.651652468340002,0.161291343893544,0.14449270577864526,0.13342014184722117,9.72067940556829,0.20873093188729966,2,1
330,handbag,0.29494213195760555,0.07037322480125618,9.85103259559505,0.17585495263288659,0.17142861489620864,0.10340976805120679,9.534956926574813,0.2836236645931455,2,1
331,pocket,0.2325201951009327,0.1067402159448073,9.655406399964674,0.12550349819858014,0.13159080226483796,0.11614845407641189,10.035259181798962,0.22682237797811297,2,1
332,pocket,0.3053594304235963,0.049709626383375,9.786566242515628,0.15576838149818067,0.12304053560534005,0.12057409311477395,9.645542705279137,0.2859281688807025,1,2
333,pocket,0.10397142989097052,-0.09558842590583912,9.727963311059797,0.16016598132299614,0.10867704910758362,0.0943725869781336,9.370663219915821,0.2130096008840659,1,1
334,handbag,0.20359443079150746,0.016041299084451163,9.531474153207611,0.13335642754270743,0.0990211787711524,0.10692134194254269,9.503927007303117,0.29752200432673187,1,1
335,handbag,0.33736281756763065,0.36168920821393813,9.901555237248566,0.17975676932050402,0.1382841798879786,0.10308435171779187,9.238223611493353,0.2641397263059725,1,2
336,pocket,0.47591867646550734,-0.021525459550414197,9.620454801099196,0.1450895976489086,0.1194509640596806,0.11664646163116463,9.576413547316218,0.31357803111398524,2,1
337,pocket,0.5289653383459813,-0.08062508340706602,9.583040068864321,0.15907270584234984,0.12849832530980737,0.07869288915089427,9.512736540416546,0.3555731807052475,2,2
338,handheld,0.27494650240915974,0.12695492328885236,9.64605612193285,0.13899483234696666,0.12037139257432714,0.11202265653562722,9.913644566092895,0.2641641355925113,2,2
339,pocket,0.3360014740118411,0.09970681817932203,9.963124723326313,0.12611184964285918,0.12089333165328663,0.11840931754728598,9.88305688613428,0.3182587051920768,2,1
340,handheld,0.5072368747222786,0.07120042510452226,9.584628641241988,0.16826120188368632,0.12438437775127478,0.08634249921368359,9.793165137589916,0.31849509610024657,1,2
341,pocket,0.10937459448997582,0.11173375320227073,9.727824351768364,0.15758142094808714,0.1284416580736531,0.08237106156438448,9.976780224492291,0.2489375751326473,1,2
342,handheld,0.30445497790688747,0.1873043132835388,9.597683767365886,0.1547450337423958,0.13881440446974497,0.06683450288713377,9.44539921574136,0.2630068018751043,1,1
343,handbag,0.3252514424229219,0.039540368025762315,9.614829176183505,0.1444366268980411,0.09535389632784551,0.14156935621371539,9.819580047084054,0.26356396799016146,2,1
344,pocket,0.42717921541151166,0.133329224993914,9.550057743087045,0.15703659286639204,0.1317216170105026,0.08536638310102472,9.380499207135996,0.22818405354216037,2,1
345,pocket,0.03942879291956666,0.23286495945560046,9.741516820379843,0.17532474875244833,0.0942372020352045,0.12835905897419989,9.620788659845706,0.22864837634195653,2,1
346,pocket,0.06908913242992246,-0.009434640010575396,9.69387801487512,0.13632380921721696,0.13402845005842143,0.09584035670067552,9.825296304622826,0.31123459632168604,2,2
347,pocket,0.21320733166570588,-0.1686617612726355,9.596863375642672,0.1612054531997778,0.12640456633297703,0.12196415452822026,9.607059138085363,0.21448672222903287,2,1
348,handheld,0.2666591493482453,0.19049701905150992,9.797320346795845,0.15404980502018117,0.11846789305045947,0.11161880508149306,10.148313455301402,0.24253191691097148,2,2
349,pocket,0.3784295930600711,0.41035550907235674,9.807872071520775,0.14631170852608125,0.11924967575090291,0.1420429692489189,9.652991035069181,0.2336665389834123,2,1
350,handbag,0.2876315663718406,0.10911744156214215,9.750721860818079,0.11708886721002784,0.12273830439834943,0.12891636077755048,9.94019711427043,0.27301393457242984,1,2
351,handbag,0.18728801548345742,0.13423186412791474,9.827066993917414,0.1497601497288832,0.1418196759584527,0.10426200380086437,9.673867919215894,0.3650203211647829,1,1
352,pocket,0.2724692167134211,0.07450298802872113,9.67509897340353,0.16345377049217322,0.14004904050450173,0.10619669475341713,9.772916754152579,0.24052825335772007,2,2
353,handbag,0.2551566714411677,0.3005673009812311,9.742237469658448,0.15647944838149816,0.13770798752591712,0.11358239758633186,9.648742163041616,0.1779264627806213,2,1
354,pocket,0.4717524644981682,0.100669168046616,9.675485034271198,0.12122652005217976,0.09307195602057308,0.15362609300656344,9.784286370585704,0.25530949734166614,2,2
355,pocket,0.23484884153527985,0.08761230079820778,9.559266688206232,0.17494110294907325,0.1315241724919931,0.1013546830007685,10.171661988677096,0.20135826515389532,2,1
356,handbag,0.15253748796711541,0.21930365771230437,9.731924640083136,0.1829584033058949,0.07204471972762243,0.07414640998580048,10.12578943589427,0.2628492131211554,1,2
357,pocket,0.27744135451077445,0.05188724453638139,9.725867790637446,0.14781005402036912,0.0773860281883548,0.10489425459168508,9.618207818668916,0.21190114491486972,1,1
358,handbag,0.2397727979007798,-0.04416324412910251,9.706980569205795,0.19622152681650284,0.14247874396624008,0.08718668379550776,9.682748667250623,0.2581540262724495,2,1
359,handheld,-0.025649003351200794,0.21587604554548329,9.747387539024345,0.13340899610195764,0.09106141001335585,0.10422555955074966,9.752709783242015,0.19031708378930112,1,1
360,pocket,0.20765219075667465,0.03901433507934253,9.851190243370986,0.12455802034460454,0.11641752635497532,0.12302305726535893,9.90052176226877,0.23670946280307884,1,1
361,handheld,0.1948892631890992,-0.007055203321121542,9.689558001841933,0.12970356395386234,0.1480868291535082,0.11008161985848387,10.20362133800896,0.20035545442839597,2,1
362,handbag,0.12841922013310256,0.3620057790287824,9.614283123075879,0.15490277543289202,0.13167534650304194,0.08813592130133051,10.06148567967697,0.31266208153855346,1,2
363,handheld,0.3653374931434458,0.08856838361327456,9.6852248990542,0.11443303377646033,0.1274000039866082,0.0959421077997696,9.67331066540298,0.21379034171320183,2,2
364,handheld,0.09214806050820061,0.16930712987567995,9.69631599666372,0.14378174293581727,0.11891158249543793,0.07867536519594637,9.840751950595452,0.2777216950401001,2,2
365,handbag,0.2783427929286808,0.11354338892093319,9.80835885739482,0.20869100667050375,0.12251783793092967,0.1255126663451193,9.796430784412927,0.2589529630607975,2,1
366,handheld,0.18782145002344042,0.0036416611555605827,9.720666310332513,0.1199235118200052,0.10749637032392662,0.11641226591957726,9.588558360548172,0.2599456687986616,2,1
367,handheld,0.22615425084701737,0.1927320344026307,9.595181064198076,0.1390578098083339,0.11040835835538389,0.07823314207220108,9.99338607853828,0.2686500341084741,1,2
368,handbag,0.27176794365688006,0.1477494780544069,9.79054578635709,0.12927863399852194,0.12172926940792508,0.15042041395922406,9.111495681029709,0.28014913893898363,2,1
369,handheld,0.013863842416349803,0.030874420203208117,9.774512783879384,0.14430365731432068,0.12464810427307366,0.0956608158293169,9.991532339788762,0.31530917671355024,2,2
370,handbag,0.23874913376021742,0.16198284054276063,9.720710245176463,0.14303685758881057,0.11684317600610772,0.10591057674083726,9.842967149447766,0.29666688852309847,1,1
371,handheld,0.553342123456981,0.048282788704399754,9.804824646363782,0.13660877540534105,0.07527339001272651,0.093249526572861,9.28838529245846,0.32630221712300445,2,2
372,handbag,-0.02351450188180862,-0.022539443213023605,9.82156070112434,0.1468739047926104,0.15129748795864345,0.1084018450136756,9.479557885756533,0.1967990014158412,1,2
373,handbag,0.20135880544267426,-0.03468007052225479,9.672255950971422,0.16266411179103032,0.13874573109930535,0.10188109345938502,9.223529219027258,0.18292974145106078,1,2
374,handheld,0.37848589872357297,0.14240703451555745,9.619983876649021,0.1777069167960253,0.1159190088792373,0.072047728763422,10.16419404906664,0.3328587278168871,2,1
375,handheld,0.25524288719303956,0.06407228840858667,9.708812358029876,0.14431149027773055,0.1393685624981359,0.1234701868415296,9.492089379951512,0.27812442694935513,2,2
376,handheld,0.31319504281740496,0.29020448228527534,9.763661172543584,0.1501157032201744,0.11282947494488639,0.08343723475348533,9.967549197439602,0.19679925540590004,1,2
377,pocket,-0.14634990166389242,0.10484502639944518,9.699464506129665,0.1592651165675942,0.12635079083022627,0.1183422093928135,9.976470827238806,0.23602270752711071,1,1
378,pocket,0.2997374061944926,0.015775604785570163,9.61115764172443,0.12528443166739006,0.08153572604330467,0.09536277274249794,9.709832288871354,0.2768511338505142,2,1
379,pocket,0.09574676906496023,0.12893811663726945,9.726267197252072,0.14694697997676048,0.12513467450068155,0.10126649636269178,9.573857001361802,0.24764740134285426,2,1
380,handbag,0.256481592687472,-0.04531207858895277,9.50664993300095,0.13988939004374779,0.11437323388582586,0.10964225823422302,9.868191352670264,0.28062079439608356,2,2
381,handheld,0.20558479036357635,0.0999042511370357,9.677553892779047,0.16903865947517707,0.1243611236122835,0.10274536267528607,9.793856464645929,0.19126959914267844,2,1
382,handbag,0.5517499543742449,0.14830001317739305,9.795116589949018,0.18503650903971663,0.15419776729303886,0.11487644443444717,9.97405942535747,0.2484916322262157,2,1
383,pocket,0.2920042985648813,0.13348067691623666,9.800543836745478,0.13445874933673943,0.11963825886367085,0.08583601596661443,9.446673492702791,0.25588103657012407,2,1
384,handheld,0.1931064256105821,0.266335991662371,9.334022107332311,0.17559980460241514,0.11084970194951485,0.12073769754568271,9.995608075609079,0.21466509816351378,2,1
385,handbag,-0.01645391388803316,0.4217020551013341,9.690741589554682,0.1208325511371714,0.11107185666274323,0.07938934269531424,10.07692005541988,0.23583418182472737,2,1
386,handheld,0.2281720352774845,0.1905676845609542,9.769927579522127,0.15401347369284943,0.09167717353222335,0.08174331673800973,9.675807989278356,0.22683450710553185,1,2
387,handbag,0.3334843317520234,0.25145555933426234,9.59239179275677,0.15519993619145284,0.128084931999729,0.11158030218240132,9.501003986806154,0.1945307013735787,1,2
388,handheld,0.19791721622711653,0.41521551915886873,9.672804532509367,0.12032171112306109,0.13068860755091805,0.12099093043377782,9.619178647391672,0.21912805978234734,1,1
389,pocket,0.13415154600938384,-0.010747101737977091,9.83077167559095,0.13343146436816436,0.12130834425737179,0.10567645168980828,9.579967454899151,0.25954853034389863,1,1
390,pocket,0.1241120004230522,0.12567528905300102,9.661583658342227,0.13148558309061376,0.1383981445114928,0.12984397253326466,9.694791043557055,0.2012725143967158,2,1
391,handheld,0.2902712153182981,0.05264041614960098,9.869864166890531,0.12377201540979944,0.13858814787438162,0.08332827337126614,9.555467077548359,0.216255747079999,2,2
392,handbag,0.32390819089637357,0.21111892523132866,9.635881428354999,0.09667564179352534,0.12139667617204236,0.07669394670212745,9.85412696107884,0.16485423023927015,2,2
393,pocket,0.41418151729816777,0.14259427033719452,9.850988017161804,0.14585501103537446,0.13170991586100408,0.11676499149688327,9.899172844127394,0.32201484744029935,1,2
394,pocket,0.06075001601844629,0.011788121611527938,9.713356355487122,0.1482645233038553,0.16345361848037843,0.10244602248868992,9.650249736922188,0.29630106548927404,1,1
395,pocket,0.2888966337626425,0.11131373796164533,9.622167271279974,0.1481074905478918,0.1035589220919778,0.11612309808801657,9.251380823782815,0.3102384782194268,2,2
396,handheld,0.19174440683731991,0.23563072875870622,9.851321408291932,0.16531412208927704,0.13546329060437975,0.07943941867700097,9.850756518277498,0.2680533095743692,1,2
397,handheld,0.19616486930500793,-0.04644695572300796,9.589352504641846,0.11124337360880864,0.12173648732593094,0.09113558366304583,9.371218370678717,0.2647220117226075,2,2
398,handbag,0.2702738781051003,0.014318653323322508,9.630402775594067,0.142378997642418,0.14091493126219745,0.13485572302758392,9.802397157930034,0.23944198288122265,2,1
399,handbag,0.2711484380437421,-0.0036730102050170355,9.758991940728949,0.20119955811708873,0.1041302251223929,0.09597968582283548,9.757967014922887,0.31501304831831184,1,2
400,handbag,0.289315215868736,0.14916758665842922,9.718081739450263,0.16773511825925574,0.12400557483732355,0.1285300828468412,9.657757470470324,0.2511798701304027,1,2
401,handheld,0.05137932117062849,0.2588619295537952,9.73739637562529,0.1678492733845539,0.106407997488024,0.1155359056366522,9.901208141062709,0.15198476987194987,2,2
402,handheld,0.0975282889250312,-0.13116813583672138,9.673168167684377,0.1296681107623452,0.08466025238627559,0.09429073306217435,9.830891261029896,0.15335433392118752,1,1
403,handbag,0.43288024132765257,0.12132782761743001,9.590060648863584,0.14608192191360703,0.1480877533143689,0.12823516270285737,9.836920495317164,0.2681721351221212,2,2
404,handbag,0.176914129877874,-0.0009064860730221141,9.644774423694871,0.10400278680805225,0.11131072973429318,0.10652709919629953,9.945255281239152,0.20202039600608412,2,1
405,handheld,0.2559021597026845,0.2306483329795981,9.842039928144668,0.16170964614608363,0.103150336061183,0.10027060176830695,9.63679466479982,0.25486909973955074,2,1
406,handbag,0.36819994680647783,0.08156380693144953,9.576301910395143,0.17800598137379536,0.10846209085443999,0.09840270890505613,9.63330432158918,0.287944285742821,2,2
407,pocket,0.2795164608541228,0.1256808726892877,9.874446743334996,0.12100404782115927,0.15648878640835068,0.10877658008613032,10.009305810405754,0.20852263225539483,1,1
408,handheld,0.2919783946458059,0.1098395605757528,9.741585898655854,0.12682231355452853,0.14621055474962824,0.07743380378008302,9.90047420244024,0.2350206548871887,2,2
409,handbag,0.3441866518865635,0.2449062563827814,9.650319509414691,0.14935943932991552,0.11563604319480526,0.11798029639663649,9.62257627392012,0.2368380507832199,1,2
410,handheld,-0.10749956413455,0.3558357836957339,9.509794701552265,0.1530658800376205,0.13722748366526955,0.10882827015315949,9.239065405054541,0.20666975887056271,2,1
411,pocket,0.13650747672591979,-0.026159839585772934,9.522931441588192,0.1391654904190562,0.09849227574084532,0.08857650549423124,9.838010420170624,0.17854278647453897,1,2
412,handheld,0.28029086947493875,-0.0043067341593582414,9.67441161001401,0.1336926084171488,0.1304708590639589,0.07463055701091201,9.861476957561356,0.19537980566483187,2,2
413,handheld,0.4181466460586486,0.14857974830656484,9.662295593424243,0.1339068547357174,0.11138871538250092,0.09498655307830363,9.436902000833914,0.17531813137005764,2,2
414,handheld,0.21991433394836593,0.012031718203769762,9.721774857446306,0.14901937612370403,0.12872196385195944,0.10500336807267324,9.527865664854065,0.24111416887037937,1,1
415,handheld,0.08329253073658568,0.22203005244803287,9.88191443343387,0.16172274386930724,0.09252445880856969,0.10311946988909085,9.638042894247434,0.24043744228714206,2,1
416,pocket,0.08728709255842466,0.24129409509012045,9.763759401627025,0.1490139551125786,0.10809721596214819,0.10299625081734037,9.853081353656092,0.22365679850878895,2,1
417,handheld,0.3425791805179611,0.04441084253042503,9.697131121725544,0.14710280414834212,0.12363817197620044,0.11347603139748491,10.360894045277178,0.17899606564112303,2,2
418,handheld,0.17733396264121698,0.018375528003023,9.831684435674003,0.11481491447455291,0.12342668711941945,0.07698627891880282,10.019428165803385,0.305266830651399,2,2
419,handbag,0.2089199931314495,0.07702651740167371,9.725065392673912,0.16734117350743163,0.09074364884269773,0.09869173508755033,9.362889550580386,0.21886972490327353,1,1
420,handheld,0.3022545290658479,0.12248218567556221,9.86997089937602,0.14897219644006152,0.10056308778102599,0.10595680451257095,9.630946780046164,0.37833055452942166,1,1
421,handbag,-0.22522855240403686,0.147780462787423,9.642791370663264,0.14126747536826934,0.12846832087954366,0.10921402700779197,9.716366761980716,0.2932586992180233,2,2
422,pocket,0.5100551267262122,-0.16033804708590038,9.59522092281424,0.15510276680875398,0.12612038601474046,0.11797671306767876,9.86561373387869,0.14688929152079006,2,1
423,pocket,0.10033892474234078,-0.006094662262014217,9.509966772374515,0.13312380286090184,0.13310964547822138,0.0959300329433722,9.536880366862404,0.31172174867658964,2,2
424,pocket,0.24629045542103575,0.06150807813552992,9.69945887425216,0.141682814438486,0.1238040340955724,0.1010660964004379,9.886132646411856,0.21487752514696598,1,1
425,pocket,-0.04570455202444065,0.014361280190373568,9.586535847664292,0.15215175288149846,0.09893613810674062,0.08516912600902882,9.611738975372052,0.20365359527145896,2,2
426,handbag,0.14661883343924437,-0.2337651870823544,9.585119686751032,0.13642890612657135,0.1129231463867984,0.1077648916088057,9.885733543149147,0.23639702641886584,1,2
427,handheld,0.39670320695476446,-0.11660469584256324,9.813431941640182,0.1170864923965253,0.1306204478723558,0.08259098668943866,9.758948424562453,0.3066899064929627,1,2
428,pocket,-0.0774250769498818,-0.04664302307012404,9.537789837532658,0.11383055633183628,0.09996646119399924,0.1114744779634743,10.251358309588298,0.27616913334223253,1,1
429,handheld,0.37893001307837115,0.09616589589761373,9.720355847249733,0.158914656422079,0.097479417334943,0.12362283582889366,9.984705426694417,0.2591236666490012,1,2
430,handbag,0.16894558556514236,0.057655736782242846,9.701676728972934,0.14937782426438814,0.11394050831561718,0.10936569818319941,10.068471953978623,0.2089057686464406,2,1
431,handbag,0.2830746660330288,0.03421171009657105,9.719213114833163,0.14867060537257315,0.12542899821110615,0.1256659585331577,9.475584978509895,0.2971560774424707,2,2
432,handbag,0.30862866202276656,0.20558179529514087,9.848410246874598,0.12676394548605852,0.08314336290935002,0.090930363102538,9.606976085158136,0.2007969844463471,1,2
433,pocket,0.2762132249236388,0.20553603979085142,9.627430869638912,0.14958901329725408,0.11515018446749979,0.07602581386553996,9.82179374610183,0.3021444057615031,1,2
434,handheld,0.08025740225537603,0.12799023841782486,9.848494848709835,0.14199090815580395,0.13037117404014043,0.09676444011307787,9.431651242218834,0.2666572235506407,2,1
435,handheld,0.15531762801974644,0.12441443392623901,9.533979494385296,0.13799876243457262,0.13430719676374567,0.08771915753895528,10.001345913005201,0.22021490714810268,2,2
436,handheld,-0.009233426587622356,0.007200733887990626,9.775074103706647,0.1484989849095971,0.09992460410100748,0.09013133872019043,9.772619170652106,0.3562758729316732,2,1
437,handbag,0.28376944973821194,0.021560920321216634,9.857637337887112,0.15592861866385738,0.12743879687987536,0.05556358588600316,10.014982211935797,0.295602762137176,2,2
438,pocket,0.46530827310238887,-0.09491792597502614,9.304594991523977,0.18499805968408498,0.13987387031110918,0.10351247905298167,9.86058056241096,0.2779317331783754,1,2
439,handbag,-0.06366613300146937,0.07990982818660028,9.706460707486993,0.16130586633436422,0.1321341034336224,0.100430147235702,9.751215759438091,0.25516687777334984,2,1
440,handbag,0.09575311407929467,0.2042889547653436,9.698326935508392,0.16715125364003633,0.11176208529746237,0.11686143908693906,9.709330100655741,0.19281265573015371,1,1
441,handheld,0.18273370861756,0.2725195876129472,9.717184850920544,0.17209310140749295,0.07229595525747105,0.11106195177574113,9.547786463661916,0.251890905425892,2,2
442,handbag,0.23600121355703313,0.0806264170513444,9.88115579209901,0.13471954754462032,0.1241867081251762,0.09649313450071394,9.532909091592167,0.3302112893620707,1,1
443,handheld,0.3418764452151639,0.16900025984116288,9.633636913367143,0.14358230858065688,0.1515712781503339,0.11825704223154718,9.962166495262236,0.18112223964142146,2,2
444,pocket,0.18717000294635,-0.23271870914334358,9.591549146982052,0.13190178943635916,0.1364812362505824,0.11773286719265848,9.907004806144233,0.2783641299478992,2,1
445,handheld,0.16260619103315244,0.05804860155218912,9.717912268275919,0.1363635619532919,0.13509164793812573,0.09026020756584756,10.048517580620468,0.3197153303765442,2,2
446,pocket,0.3754696059104611,0.055236514384008374,9.822431344130601,0.141435151517443,0.12336957233120953,0.10392211470797313,9.603581442609206,0.3222163773024979,2,1
447,handheld,0.30929933505949575,0.288940197707046,9.765863488310483,0.13588689435160756,0.13793564861117874,0.13020991861645112,10.02064719505938,0.20499561637402336,1,1
448,handbag,0.2908466963551648,0.15715201531057016,9.713432199683107,0.15448204914791316,0.1260649745425461,0.10653066402950653,9.695855992140107,0.22275480608448175,2,1
449,handbag,0.22687735673821713,0.16931065074567286,9.687076899718784,0.15865686262079506,0.08507432147438365,0.08355655550880887,9.884983582913017,0.2550461381868594,2,1
450,pocket,0.3574728316379788,0.16307939731987914,9.509306967101878,0.12387714669327923,0.13783158026191492,0.07755037966551342,10.062883353449482,0.27269234469760667,1,2
451,pocket,0.11155359131546001,0.11545312787986656,9.768586252861722,0.14375836297631506,0.10277736207546985,0.07057362975412974,10.25775966689375,0.31408631432601625,1,1
452,pocket,0.09109585767208828,0.2938838397018955,9.78053405829586,0.1439773674844411,0.12134465972618948,0.05904500012420413,10.008105164248098,0.23994312916785726,1,1
453,handheld,0.3219151480303986,-0.16663354575580874,9.640766643184675,0.12055187342048017,0.13478393535478153,0.09031840182461498,9.790704053419818,0.29728189939515404,1,1
454,handheld,-0.03375539538703623,0.12754524904585016,9.66352801332071,0.1346770916755413,0.10501650503720909,0.09650873387449757,9.880239326621087,0.12180071151935332,2,2
455,pocket,0.22382692644547306,0.24557634219674762,9.605177097903953,0.1674690466230826,0.10029086424425437,0.08047345505141236,10.052251818531095,0.23670052979621967,2,2
456,handbag,0.16251624716062318,-0.11696721438311779,9.79681234727893,0.16721155018960118,0.12954339818379654,0.08631531398474918,9.917475351642832,0.2972344611658774,2,1
457,handheld,-0.0008632095979433929,0.21055014245267628,9.673413371930563,0.11741620308748607,0.09772920877703348,0.08091869495429738,9.640187403538347,0.29167486680422955,2,2
458,handheld,0.07030986304256032,0.018660411048162004,9.6950695332678,0.15944258014324156,0.1161440753765274,0.06840153780010219,9.89369711220376,0.20208707789885316,1,2
459,handheld,0.1936535861556976,0.12317791146104494,9.772926411634394,0.12059425245995709,0.1425674691987845,0.09660251568297532,10.06591055711932,0.3013251415576572,2,1
460,pocket,0.3650944884748534,0.016356874286548792,9.742697405342946,0.1419703521187191,0.1525298458592877,0.11337382122898429,10.193107499498876,0.17898992892798327,1,2
461,pocket,0.11205630131132834,0.22509820118588267,9.766328113476703,0.14805361404615283,0.08436740126739112,0.08980051590850417,9.755534117857012,0.30982225433864247,2,1
462,pocket,0.392007209985749,0.07539657425317206,9.72748373060355,0.1650555074096625,0.11562583269996957,0.12272202726892789,9.46081023409873,0.23978332680226153,1,1
463,pocket,0.21947688413347743,0.21149562276286543,9.72971183351227,0.14650824020005582,0.14540098592830009,0.10306265502571112,9.295081139635613,0.22743336525463165,1,2
464,pocket,0.4065577053254956,0.16223958035172092,9.728763785436426,0.12972275131880273,0.11203763426536352,0.11786018971556647,9.93890940761149,0.2350967900330246,1,2
465,handbag,0.11932625868299274,0.014744901912939368,9.755291575934901,0.12632116918745667,0.13583772666456476,0.10063390734164863,9.356642021528144,0.26895200030718386,1,1
466,handbag,0.2026785617841947,0.170223102847463,9.760150709171402,0.15335977334913312,0.137345947296518,0.11342364630167626,9.820010092244365,0.3540186647805079,1,1
467,pocket,0.2652725405005493,0.030371713038472137,9.587529203925396,0.13732401062011884,0.10778042630205857,0.0717814798908954,10.00941936497863,0.3109050628075999,1,1
468,handheld,0.18307343058877323,0.11769537126079684,9.650280574871477,0.1418261276777925,0.1285723698301562,0.11684920108228566,9.699205314168989,0.19264133856540275,1,2
469,pocket,0.3529536220717854,0.07320867662122402,9.6896641736498,0.16940929186951936,0.12978920166582247,0.10013005490218727,9.366014140547911,0.1979346580335822,1,2
470,handbag,-0.12113455879353988,0.21798942396665283,9.755181825649556,0.1586979586229878,0.13820373228752914,0.12195851430470525,9.425014660186784,0.15470984681561456,2,2
471,handbag,0.573360830818491,0.17483867248849014,9.869742336282625,0.18173791687176638,0.08749700479222594,0.09495505293383287,9.510045897993843,0.26544338371841936,1,2
472,handheld,0.3386661910492743,0.10631341416743091,9.628677696836672,0.1296360515864614,0.1458566668400305,0.13483393304037786,9.708985865415917,0.24152306290164263,2,1
473,handbag,0.18397022564474755,0.027714586741320685,9.797865167538019,0.1358161705447382,0.13373718514654404,0.11067420116553575,10.041036845348229,0.2813687896247325,1,2
474,pocket,0.12715174896339831,-0.042278978779686185,9.653105348771957,0.15367374658757924,0.09739228760928725,0.08189470921064314,9.742939192639525,0.22495030018797213,2,2
475,handheld,0.08003690828271684,0.12627877031488374,9.847051683564466,0.186375950198329,0.11744396267709765,0.12256250261458458,10.278324462315588,0.23017546727774718,2,2
476,pocket,0.3068423211254605,0.03412509282178895,9.901234393179696,0.13410269227908103,0.1367567392242447,0.07884301463305883,10.000219812587382,0.17739522160002003,1,1
477,pocket,0.3592472503188531,-0.11535953890885904,9.535198630637135,0.15076821292409678,0.0984578610564893,0.07772453893095049,9.813870154998376,0.3051674936163625,2,2
478,handheld,0.18562108078051506,-0.04960342491955004,9.677366643429265,0.1764246018551584,0.1015089512251108,0.12577533733916021,9.7221106508906,0.21990228388189878,2,1
479,pocket,0.3760485619467754,0.30510503666500605,9.474975531798247,0.15099842030282237,0.12037216063824918,0.1067090450099722,9.615583202307388,0.20821938710029136,2,2
480,handbag,0.07391099298583165,0.03080283380126657,9.541016397544091,0.17040007709272326,0.11127525793265271,0.10144784127009272,9.777323092823522,0.298328575142096,1,1
481,pocket,0.0474283725019746,0.23985953330124815,9.54724747597463,0.18914978845371452,0.12501732227396334,0.0899210527747729,9.875589457848124,0.17621351249663308,1,1
482,handheld,0.4820011807868323,0.06720203273620631,9.77240659748113,0.1559024767260568,0.13645915595535216,0.11663399573987751,9.820303224252008,0.2774847290977823,1,1
483,handheld,0.29866629203078143,0.25874931621929764,9.753698364432712,0.15916961247602768,0.12544484281939142,0.094565081818714,9.615347801135671,0.21159301447919923,1,1
484,handheld,0.4195272302719992,0.25005968209692536,9.790124445466105,0.16485890125760239,0.11979402602647744,0.10403274588063273,9.48201942118096,0.24420388510746402,2,2
485,pocket,0.0819090437418461,0.010916548771921109,9.770791651837493,0.1319125700420059,0.1365508630429884,0.07745516003224369,10.205641437066124,0.15326046281512667,2,2
486,handheld,0.07147119123469048,-0.12855708001691257,9.758506482146625,0.12036866556252293,0.11790199490812255,0.09884658585630893,9.898561989638894,0.2788759584828329,2,2
487,handheld,0.15620860208136866,-0.11839845724363841,9.721185705134468,0.1531690478319257,0.10508524586132399,0.103505046148298,9.828875671530247,0.35250146338433314,2,1
488,pocket,0.08639117376914823,0.012960619525315173,9.696911969465463,0.13749741244350866,0.14310563578051141,0.11068627246421475,9.866596919846764,0.1868495639481632,1,1
489,handbag,0.3158047815342676,0.33675613106690494,9.811959773204478,0.17105516439927249,0.0716267047537543,0.10675561811120136,10.015340589756848,0.30775005221492485,1,1
490,pocket,0.09733109146103316,0.060732551009295296,9.711227788902404,0.15628594320738282,0.12128059910076985,0.09332912279026422,9.623033366042002,0.24763466770021883,1,1
491,handheld,0.03424952128990644,0.12742927400881454,9.76251789815886,0.17071622806687056,0.11273151623799993,0.10569447274172503,9.707587366237707,0.2767302029241355,1,2
492,handheld,0.23130231183828484,0.2664004239444068,9.476971466596787,0.1259670220030439,0.10153988605762193,0.11961424704241796,9.551874719016054,0.1909982242689075,2,2
493,pocket,0.016502073626218,0.12323856357340257,9.592493091914093,0.17003072866987406,0.1259716150240171,0.07031805181177768,9.738202670411086,0.1983992062132225,2,1
494,handbag,-0.05991958972130837,0.11910692462249298,9.808022425364527,0.10402483430487629,0.12919425265077997,0.09669048092435123,9.571014299482643,0.2543729735909153,2,2
495,handheld,0.22998858507919165,0.1847195832734176,9.643156506656682,0.1276077971161146,0.10341962289015322,0.10417444615020925,9.488406593919146,0.23917900805173212,1,1
496,handheld,-0.052383006451531516,0.14467637066119846,9.57046424821676,0.16264476878683493,0.09208053475390253,0.08155473531265368,9.335078795395546,0.2574534870544452,2,2
497,handheld,0.3262919094443134,0.09806394739958181,9.774129233148138,0.13994877165783018,0.09388073440095174,0.11859433714562807,10.154509158544647,0.17681895602783768,2,2
498,pocket,0.0006999410620806279,0.023426078816306928,9.710133432527844,0.14187396510657385,0.15626474899923332,0.11199001571966297,9.65636417519117,0.2805211878109348,2,1
499,handheld,-0.12610106796296214,0.11941866690385475,9.669306082868642,0.1521446855506114,0.1584739827059363,0.11996242681388945,9.861688822169189,0.2694178558794615,2,2
500,handbag,0.16593050247888086,0.24132797564997688,9.86091109687411,0.1784391001426089,0.12059100882788187,0.14319388364709296,9.764089607824332,0.30529512784147483,2,1
501,handheld,0.23168917549447265,0.32384055043984655,9.843743410791543,0.11156461047009159,0.09256853239677326,0.10660276798038043,9.864306536216118,0.2658256538790619,2,2
502,handheld,0.28372125955229105,0.1450731969882692,9.691216280038494,0.17497412725395722,0.11709297904174812,0.09433660584247588,9.239122684861384,0.3627847694789432,1,1
503,handbag,0.23580235485237802,0.20061933621151673,9.78223753048193,0.17614920238282744,0.07598654215306097,0.11877150732818423,9.622528422404526,0.35037866917587274,2,1
504,handheld,0.05110310683233865,0.14236768485953744,9.486129618776145,0.13991252756077277,0.1262935709236694,0.08824073406858339,10.029885311051228,0.2508607465226484,1,1
505,pocket,0.3169591771389906,0.09952047627156768,9.819335903289728,0.13610230386023248,0.10011877515607238,0.10928242427252068,10.225766955846899,0.24888578322157778,1,2
506,pocket,0.3540207759719619,0.17171084943352213,9.601341349126397,0.14764058647006595,0.09579600308814507,0.12073656515288249,9.64887123963815,0.20849634572751546,1,2
507,pocket,0.029135680731669195,0.2527199401174981,9.564785806458318,0.13567656594797756,0.13955265933602856,0.11664382623541066,9.677685357569558,0.1822032076261133,2,1
508,handbag,0.18284907920105792,0.0036365796777025616,9.531473495215845,0.15689553140905657,0.11691508453951571,0.12814690512096802,10.006603878224286,0.23860742256381348,2,1
509,handheld,0.16883399593364706,-0.06416760427754904,9.523744811022137,0.15950024500703663,0.13731359304092117,0.09453570289099313,9.850182027486024,0.21780348248033113,1,2
510,pocket,0.24305723741820506,0.04603901004362407,9.818032554090045,0.11892180950845269,0.14413820979721795,0.1141811157757885,9.74740939313783,0.2107289145809076,2,1
511,handbag,0.17926143123388366,0.13539943319596445,9.773114470928487,0.13159287649057924,0.11821176743275545,0.10185614706484543,9.72386212666389,0.26756936595690634,2,1
512,handheld,0.19981833418905348,0.2143845941145478,9.633414035739055,0.1262972194188225,0.1198968355753563,0.10506479128808853,9.597380883079373,0.17120339494866843,2,2
513,handbag,0.30627232953625366,-0.00874093898265857,9.795489903673822,0.15429374979395039,0.14116546415959183,0.10506577015016218,9.588637178488927,0.19087488551577897,1,1
514,pocket,0.04292203505983,-0.18862918271497736,9.650501857079083,0.16744664218806735,0.10922444452122884,0.11077820892406855,9.773010086671249,0.15141279233220914,2,1
515,pocket,0.32060597028912363,0.04886616119947805,9.742364944148862,0.12853129012334535,0.14309267315810853,0.09933152822208333,9.819164952987627,0.1823730595241589,2,1
516,pocket,0.3811699097296876,0.08673029292101167,9.661769097310211,0.1673055221235266,0.07953512942494403,0.07159117679696353,9.832176409401105,0.2198054908497467,1,2
517,handbag,0.45512024902333026,-0.029472818009372556,9.698003687113271,0.13150400988818167,0.11290381884264356,0.10308430366146033,9.568633106515833,0.29040386717970357,1,2
518,handbag,-0.1115050986206039,0.01926908854192258,9.619180309223237,0.16437243919925262,0.12374486044672275,0.10723521957525908,10.073149329719477,0.34663992232805313,2,1
519,pocket,0.18256475143271728,0.2140740092104397,9.634018237119895,0.14432537140948173,0.09589997711549253,0.09916266606967326,9.334679813235855,0.1636281133725478,2,1
520,handbag,-0.08476508615303838,0.11937440835153189,9.764409618095263,0.1411659858853811,0.12739077899792176,0.1087096723957057,9.872404046193342,0.293855207340869,1,2
521,pocket,-0.15525955346592354,0.15147465423311812,9.780477896676127,0.1728490107495343,0.12344415943971371,0.09753039073797287,9.605016662339365,0.2018351121313087,1,1
522,pocket,0.23161395714112176,0.0673181322067343,9.66858758852194,0.18575381462116178,0.10535614979371402,0.09457714874156661,9.523527223176277,0.258167339617338,1,1
523,handheld,0.15012723107244574,0.019506750685000893,9.557445975573147,0.1111650111686965,0.10459104581625138,0.12782173815573625,9.658793084965756,0.27883954100885777,2,1
524,handbag,0.25497764276561197,0.06645221246910274,9.957124704491124,0.16198871359548833,0.10255917008443824,0.14514079750684872,9.342097510266946,0.32027596236008044,2,2
525,pocket,0.2829191535130974,0.16986562330156305,9.713669665823124,0.15354668484336587,0.0886694300775519,0.11759221898410266,9.828568629449064,0.3697962196636224,2,2
526,pocket,0.3971843937161881,-0.068958425360946,9.741214082940742,0.16315765015000713,0.1522017420536309,0.0885086634370949,10.143621076121189,0.30213141722025344,2,2
527,handbag,0.21808806379586698,0.30802043117984135,9.583867020158742,0.12122971471272431,0.11579224472578288,0.10450004806303184,9.578930522852922,0.2262505657353634,2,1
528,handheld,0.6485033425978631,0.17898301948188833,9.831523354898444,0.1283135868927305,0.09294127856158567,0.10300099211764173,10.327716179524087,0.1730723188960358,2,1
529,handheld,0.2559614782477819,0.04569438748511419,9.846789526315861,0.13657140549870703,0.11755380235627777,0.11341441418753799,9.524784686121812,0.2616197904080763,1,2
530,pocket,0.48637185668508165,0.20760885414638006,9.53919651423597,0.15426131537402654,0.12479773372318287,0.10376313989339833,9.634190916018662,0.2822939640114451,2,1
531,handbag,-0.13992567007863724,0.25668188804877295,9.69976143723746,0.13534692499065148,0.10363854223032055,0.11230093732285595,10.079952778884001,0.1922587747549339,2,2
532,handheld,0.4124609294325937,0.07035943404770739,9.691956302938037,0.1435395422161253,0.11270653193313633,0.13576773172475828,9.440718580742175,0.2887871042579115,1,1
533,handbag,0.18288592653066593,0.08400982522819264,9.948844681654684,0.16661055845099215,0.14607971984221815,0.06313323187670963,9.683345123334044,0.22860545896598192,1,2
534,handbag,-0.08225208891409072,0.28921690561676056,9.85436138071279,0.19097627238196668,0.09664375639795775,0.0898746043082615,10.169762964880121,0.19347618460683344,1,2
535,pocket,0.27308176638421794,0.3642770176301718,9.564922158603084,0.16518400518706372,0.10836759079017529,0.11918830760909685,9.445269321546249,0.256841477735245,1,2
536,handheld,0.1645566693023524,0.11353227890817291,9.637194782045073,0.16718790408677756,0.07989160103930755,0.09911576972567555,9.887638032332855,0.20486996001101868,1,1
537,pocket,0.29700798726722133,-0.028985721650676907,9.62070059848194,0.14636297910959933,0.15646561886575847,0.11185543094606093,9.867646530875817,0.19219015376178158,1,1
538,handheld,0.3616614686326617,0.053527741409053,9.747167637685093,0.13218793195457154,0.13316313121907947,0.09620397882310963,9.259315858617267,0.2643527898801555,1,2
539,handheld,-0.013372517514239401,0.23396188933630413,9.86722088807644,0.14348084014542978,0.11900869705263742,0.13120337192331183,9.586108267689,0.27076589728999123,1,1
540,handheld,0.36223784736827364,-0.013625835521655333,9.720917403255033,0.14884195497224303,0.10563859807029444,0.12322550314275739,10.33537277533341,0.2317333211049682,1,2
541,handheld,0.2109719226331075,0.08500601602891773,9.760116623643784,0.12679724370461246,0.10463981529913068,0.10597387283082692,9.795948842637447,0.2637351851644573,2,2
542,handheld,0.41292617620399086,0.14511018577179555,9.643569129565687,0.1663024137090562,0.11461837383324991,0.13348429942416934,9.835958704458521,0.30708288370063147,2,2
543,handbag,0.17922776565031975,-0.0007257623689200798,9.759580769815948,0.18038901069137744,0.12992300111281704,0.10619329226092783,9.799483995430508,0.2916080942177848,2,2
544,pocket,0.13943866612028682,0.24157214742512922,9.66280821659855,0.1524484384943449,0.098728340665387,0.10132472565887249,10.250700254601625,0.20869356331045677,1,1
545,handbag,0.2140581061033427,0.19327610182452495,9.545924046866936,0.17168147954500237,0.11073766392092102,0.12940330503099765,9.496555842762037,0.2513971589548667,2,2
546,handheld,0.22527910595697795,0.35114550914303505,9.753087070913512,0.17416864286090908,0.1371452117382362,0.0720158085401105,9.570385111992362,0.21505049015951522,1,1
547,pocket,0.11058227977623969,0.20377530750293266,9.70901475783884,0.1293069955331178,0.15218266373641492,0.10335696240226175,9.712311150236944,0.17997903906703117,1,2
548,handheld,0.13555429035670744,-0.005306756267924609,9.600280245681525,0.11524387932999719,0.13087051182403386,0.10706320041696746,9.87893349616788,0.28213400246736886,1,2
549,pocket,0.025968669822931584,0.17364428730910297,9.874538532510401,0.1400196832976483,0.10675548813092975,0.09554762637999496,9.77842710384715,0.3001342692299139,1,2
550,handbag,0.1448032365314708,0.22856260082190274,9.63335460105383,0.15191765398256343,0.11689979154591279,0.08508969290723162,9.785497581404561,0.22629468135216735,2,2
551,pocket,0.31144650899963683,0.23473745769504156,9.770910131443884,0.12607736488453666,0.1282457426775284,0.09856195315395977,9.601953360936783,0.2617411038809999,2,2
552,pocket,0.1893968739140784,0.016778942253111648,9.673745180944984,0.1784444716535677,0.11417052764687252,0.06979365999000486,9.891777762125846,0.3273589931230463,1,2
553,pocket,0.3613597944070992,0.002439475717342987,9.864357721885758,0.18897603130501173,0.1342366976615443,0.13106825548230286,9.266930829175978,0.30124952142452616,2,2
554,pocket,0.18218557985203893,-0.02675645429308139,9.686241208627145,0.15358393896454683,0.10539908812347003,0.1320682783009874,9.603110690033398,0.220684600307267,2,1
555,pocket,-0.00472769965849712,0.302567839296664,9.542537191138976,0.13036405351187969,0.15226563837683207,0.10146621367576325,9.534704587682791,0.2460179011925572,1,1
556,handheld,0.2995912331334874,0.1847454588610446,9.79100021142191,0.1597259069701143,0.11824976827194278,0.09378055227956753,9.464690988494231,0.21459475487758084,2,1
557,pocket,0.10895652884498962,0.011453765094954715,9.863954398768975,0.1303011942129622,0.1073777138986798,0.070458810755341,9.294833229568846,0.26145969553130444,2,1
558,pocket,0.1749949066854698,0.12526267265085447,9.667238860240401,0.1728618709804173,0.13183210003897453,0.08692435802002527,9.798129034382331,0.2520233579482151,2,1
559,handbag,0.3956358071226176,0.09515752239187712,9.777888480965245,0.1453713681750601,0.10041708176451028,0.12965790970534985,9.847398539996083,0.19235575338702032,1,2
560,pocket,0.035869431041772926,-0.006709776275881943,9.72294316050488,0.16454505712358178,0.12295838051605551,0.10016235199671064,9.84918117054559,0.22720271649149928,2,2
561,handbag,0.23471156811965774,0.11434207327479237,9.67172840445745,0.1680379452197918,0.148028073780891,0.0897245072886199,9.975325408564116,0.14675287189430314,2,1
562,handheld,0.2039222474946312,0.13288343452645268,9.794076037762204,0.16075916027680387,0.09566920229923484,0.10093023689751045,10.018870361255257,0.19805618619116205,1,2
563,pocket,0.31513885731556546,0.3417503713582279,9.62999640106477,0.1857056145954332,0.14382758337696108,0.08921216798004442,9.230176612027597,0.2706369256959564,2,2
564,handbag,0.3382730048223034,0.031317496908047235,9.713249520478712,0.15356546232192841,0.09417907564221414,0.06846917151707707,9.897732819853049,0.25716358073759016,2,2
565,handbag,0.24957585063733384,-0.09512791890344059,9.735735672660446,0.13993609366101412,0.1364095051012084,0.0938712170935772,9.78562319098271,0.29734205676137615,1,1
566,handheld,0.15594380301294003,-0.015874448242717262,9.732108937035871,0.1079562089769692,0.10106729519551813,0.07909849441092288,9.782839546205311,0.252636356412176,1,1
567,pocket,0.281005875603894,0.002882309188133328,9.632459324164614,0.10432077551471619,0.14383645043644025,0.10856016886348847,9.709034182991426,0.24019147851874262,2,1
568,pocket,0.4103483845716843,0.058768738876052565,9.915960521996869,0.16304076210444135,0.10847813440255334,0.11856547912926213,9.602401590963368,0.34289518855645446,1,2
569,handbag,0.20590650905404487,-0.015580447495257096,9.836224533282213,0.14632311882658372,0.11286969383960439,0.08575847771368028,9.871970468372812,0.23303652475621459,2,1
570,pocket,0.169911582836546,0.20865464069827278,9.80904125587496,0.13369208386210013,0.10123117192459771,0.10389328311539532,9.494903385116775,0.23074187035365318,1,2
571,handbag,0.26822553865019855,-0.023923931561137576,9.853321297497788,0.12772189662221117,0.07176025648743539,0.09968779123270136,10.01571392030634,0.25248041892851114,1,2
572,pocket,0.21580905305544174,0.11240215619590763,9.71687615477374,0.16481908673342932,0.09715315918563475,0.08526022430303123,9.615584401800831,0.21110987620865376,1,2
573,handbag,0.00934358641233013,0.3500230620226609,9.672870969856964,0.13032929908107754,0.08630911036958326,0.054447693865788016,9.22967634638899,0.26285265292181204,2,2
574,pocket,0.24589962005962218,0.17642819261163487,9.601096422446561,0.18261321974284314,0.07916228641186712,0.07950733189372985,9.76815209855932,0.21378149735013616,2,2
575,handheld,0.007985638685435392,0.16409084140548313,9.639656841204737,0.19701973231469208,0.12587879696572463,0.0844779971801187,9.445648354822417,0.22843413282421632,1,1
576,pocket,0.2661720969612668,0.33287794408941923,9.6085976619696,0.13199926376012858,0.15049734088819647,0.10286596612558983,9.44044991722465,0.21273521096898315,1,1
577,pocket,0.0904285913390149,0.25947794770843674,9.65718945185775,0.1633965029085247,0.15594703745233413,0.10486380485354983,9.91094927192157,0.1611105562839807,2,1
578,handheld,0.21553122062795188,0.17781492408231242,9.737647562613319,0.15880043187017978,0.09674805424104255,0.1248307709964364,9.973674855378896,0.12918603865005296,1,2
579,pocket,0.26858908592988545,0.07271277800666372,9.801402489921141,0.13024702379435488,0.11780165461594096,0.07933240179914222,9.712744927085733,0.17881083530662412,1,1
580,handheld,0.5780855018915356,0.10727733502522478,9.798635350778886,0.13036023846621056,0.14329574649652332,0.08360315163094376,9.236795604273592,0.3070544590573833,1,1
581,pocket,0.32141249426803864,0.10144353588005522,9.592849235477109,0.1475481755629102,0.09376800708560179,0.08710384455512384,9.87285479605796,0.2537570464378479,2,2
582,handbag,0.4147198214613502,0.06182893429134698,9.778912931880301,0.12723221136621393,0.14407208789563805,0.09619030736478267,9.660113007312916,0.22599266968088924,2,1
583,handbag,0.4907621728040886,0.13544438142595094,9.824385743741372,0.1718251392196232,0.14440091117566722,0.10439126474334165,10.08456555127297,0.19802030161041886,1,2
584,pocket,0.2833883875499167,0.1520897236457187,9.684576487144467,0.14507778972284374,0.08107773962033217,0.10860345479957283,10.231783045035387,0.3130531432597245,1,2
585,pocket,0.25285347004007985,-0.03935541605898708,9.829775002757554,0.12758743267322342,0.07287835239404328,0.06235338850101419,9.36393233551272,0.21791596061127777,2,2
586,pocket,0.04999183367606763,0.3058450999954758,9.79758002601002,0.14822021282233266,0.11199501726694104,0.12389996578475014,10.358145978346895,0.20774476262861963,2,2
587,handbag,0.19250551013994083,0.1591757015687938,9.583540905748704,0.15932846601484704,0.1387614967394613,0.10939099104855596,9.350436490692731,0.15540737528638943,1,1
588,pocket,0.10153684055462063,0.0784660445659259,9.929173618640787,0.1355110464391012,0.08960545737758503,0.11765426122321679,9.605408977389496,0.13844798686424897,1,1
589,handbag,0.14984117248134207,0.1365411174475349,9.638435243585006,0.1101381761609414,0.07923389180265059,0.052222138541073854,9.996573432032758,0.27306916674592874,1,2
590,handheld,0.4905995064288703,0.22164426693903205,9.805741994782553,0.15252735541524667,0.12128733694282581,0.11663795497206893,9.559587476498914,0.33431636457806213,2,1
591,handbag,0.22719322637999845,-0.0660023695103071,9.80212220003986,0.12566000734410476,0.1326551861813282,0.08009870244452398,9.53666669504113,0.26482048292838234,1,1
592,handbag,0.0786150633425837,0.0973927128223705,9.587598809839003,0.1341250333391078,0.10639633556178225,0.09098552553747441,9.313388110895973,0.2641584272299257,2,2
593,handheld,0.41618001820369566,-0.032302692983479944,9.727897948450606,0.15938210339798156,0.10803091897708984,0.12868011658864623,9.40608654425359,0.3398207249904619,1,2
594,handbag,0.3532913214356173,0.4288404585170744,9.800891631053922,0.13824202208692776,0.1325337645066931,0.11315190507253647,9.536415019747036,0.275042304343134,1,2
595,pocket,0.3611480238900595,0.12658232573223377,9.58653866920153,0.14717776426401535,0.10260158544709931,0.08646623376512307,9.933600235038012,0.24961266587229397,1,1
596,pocket,-0.0909195304653592,-0.031329477711940765,9.719961615984632,0.1790610219727452,0.10410267068019285,0.11592382123027123,10.159628723919225,0.2779744562658739,2,1
597,handbag,0.5023006436582228,0.5419360136836872,9.809267305436897,0.14295925329289516,0.12554573812706205,0.10721610252144158,9.550353821706917,0.2951442689175412,2,2
598,pocket,0.1262227886859169,0.045677770546353316,9.815724059978711,0.19042632285140215,0.12777995890968824,0.09185281208391441,9.639806884262,0.27547413247454816,1,2
599,handbag,0.32669321591891326,0.08491040983085511,9.670292697571536,0.16479829289470047,0.11552148350166103,0.10951576182579245,9.491532232697475,0.22571940214696468,1,2
600,pocket,0.5885699685925547,0.09358421120175649,9.864436921590883,0.13137251396380545,0.14968967845796904,0.09243653410883182,9.357944188903641,0.2703253361707045,1,1
601,pocket,0.5332999122285926,0.008245633211715744,9.840552205835134,0.1404729277104248,0.1349954605146743,0.10773840163525591,9.358618284704143,0.21535226508358596,2,2
602,handbag,0.06336568117909697,0.13968224209953714,9.73412279639424,0.12474714229918894,0.11298124226988027,0.10748348569164516,9.421123399853293,0.2484490823993188,1,1
603,pocket,-0.006677600550340945,-0.1552888199632031,9.64410485567329,0.16274912799860292,0.09418579413571257,0.11006867251941507,9.727478415641704,0.26986310309369793,1,2
604,handbag,0.42455198982718917,0.24030780594527495,9.593414817796797,0.1764902919417702,0.1398284522447306,0.13848672374438786,9.582891368210094,0.3419405831033041,2,1
605,pocket,0.23130837173909996,-0.02533658448846647,9.747754566144913,0.14283212320778213,0.14052951840816388,0.11890516231841042,9.645688440130995,0.2719340527331889,2,1
606,pocket,0.134867783804688,0.06016141732276259,9.856451257105684,0.11277210492115988,0.11801947454623893,0.1199995999898177,9.83920202182731,0.25082047183599193,1,2
607,handheld,0.30318278204085714,0.20018236084233954,9.695284733422282,0.15720939539927892,0.12553764082780836,0.08946192849668877,9.71687157564109,0.2299768735276812,2,1
608,handheld,0.18556806338108384,0.08546467780326615,9.624091815625878,0.13276034206856568,0.1340248708559002,0.06965228262715062,9.448856321224524,0.22079965597288226,2,1
609,handbag,0.3151986205573115,0.09037427034828482,9.7924923885176,0.1357866196177588,0.15206207206380623,0.09624617734965027,9.979319285345674,0.23066275646729378,2,1
610,handheld,0.22004727117280992,-0.011449293127572507,9.727451249618394,0.1562305433212088,0.1377451898912299,0.090272390501486,9.234665945108265,0.25201026112627084,2,2
611,handbag,0.31835818924922504,0.36147778609645403,9.76159049871986,0.1746396824063887,0.12890035195802838,0.11199221793731737,9.546515993147601,0.29579161981895996,2,1
612,handheld,0.0758200966295417,0.17377788586479082,9.657472132903012,0.16479003456240773,0.13859499414655238,0.09604685121128079,10.17054301001647,0.18628286133727812,2,1
613,pocket,0.42366930196989516,-0.019934193792300006,9.673014878856275,0.15859001976587633,0.14302247399213486,0.126524482937577,9.82512518600427,0.2883054817551062,2,1
614,handbag,0.31464350560986576,0.13138189352694216,9.657000433632687,0.1468549579482691,0.12541438874911875,0.06521654489244325,9.290442404069545,0.22173757120918852,2,2
615,handbag,0.30694460541053586,-0.02841615935815718,9.759916912281785,0.1235912807668879,0.13835058537382236,0.09441318298889392,9.344171007117472,0.2149478083651556,1,2
616,pocket,0.042349510948200914,0.3166897152787339,9.67606043195689,0.15695884233997243,0.10647382291019672,0.10745584553556624,9.655017759545345,0.27553520477693716,1,2
617,handbag,0.464944862496637,0.1339565552850255,9.769242436297116,0.16435459929384977,0.14070531545063394,0.08048897072777256,9.61834550960515,0.2312457537516862,2,1
618,handbag,0.20794258509505975,-0.0070655833488479924,9.647862837905803,0.13809835306880824,0.1066400466097604,0.11810119828922633,9.917267799462588,0.2738215827043721,2,2
619,handheld,0.31920732936447616,0.19371088827486999,9.759750156863474,0.14267273075941775,0.09983337647750629,0.11744740038738298,10.02268724388594,0.2694050761800468,1,2
620,handbag,0.1615763304380087,0.07663091935420238,9.78037811703161,0.17220103848366475,0.1174231464050533,0.09137518073441804,9.611096172101133,0.2902893764799154,1,2
621,pocket,0.24913335970231457,-0.044587438662697695,9.743154294960881,0.14215048960099697,0.09316483980282224,0.15297780030380534,9.713663863527616,0.3159200582640516,1,2
622,handheld,0.2545691028179106,0.15572556006802518,9.80170434467595,0.1445887870251395,0.10806996870957694,0.07764384348943199,9.48185836109001,0.1639993162892039,1,1
623,handheld,-0.21298963980051314,0.15234102009654726,9.661854350787081,0.14823200376012818,0.12756947633313181,0.07307231506234489,9.700541652969857,0.26022198978466893,1,2
624,pocket,0.29736721869822463,0.24652803590808775,9.779264213291835,0.16331115165878843,0.12555848389953544,0.09051531934650574,9.48374173146281,0.21301191109799777,2,2
625,pocket,0.5048012192583127,0.11774042683013573,9.733334531284099,0.15586662408476454,0.13279117131002688,0.10380583716027256,9.746094774354246,0.27090164386631854,2,2
626,handheld,0.29096703884879355,0.12284723443502611,9.629026615324307,0.15438526000895997,0.133100062692389,0.06773509687684469,9.583380277908168,0.1797228059106972,1,2
627,handbag,0.06634376266653927,0.12921596438542207,9.519296797863893,0.1803573862600456,0.1274842050758005,0.11238507840463759,9.896409339665484,0.2525510662191692,2,1
628,handheld,0.30749423492308303,0.3014339593408435,9.54068398715267,0.1418096215324464,0.10296703051433474,0.14920587035701743,10.002351867653848,0.15589666557948362,1,1
629,pocket,0.36892207952600087,0.07279117720711151,9.489163849709142,0.13098932193758636,0.13846539781090908,0.07213977962633535,10.063484800777113,0.2521731323039186,1,2
630,handheld,0.286869977428558,0.16633459625668778,9.752612927756841,0.170441961094919,0.11780764680712037,0.10392833689500144,9.749021921326676,0.2502793261950326,2,1
631,pocket,0.1988809340354934,0.18400945424187343,9.67752309782582,0.154618632002824,0.12480542645527093,0.11915905112800387,9.891782501219296,0.21637250139401146,2,1
632,handheld,0.1736776161264104,0.15197318230769116,9.718721233905054,0.138215076068799,0.12208214293855355,0.11531363828376051,9.61509828889213,0.2303062292964364,2,2
633,handbag,0.17305353669497894,0.06825144727285153,9.6919598416538,0.14280269172440466,0.15149201621055494,0.14316811640556007,9.529789501816914,0.23150787670782624,2,1
634,handheld,0.31466653515168186,0.12447248087690041,9.76816700728888,0.12452139945738931,0.09610249928325083,0.09061248424986801,9.398137636812251,0.17252012580595175,1,2
635,handheld,-0.0010685992589442306,0.09876106862805789,9.77109124004478,0.15463360365576304,0.11313752574289414,0.13971969419528255,9.829645291146223,0.18517740058504673,2,1
636,pocket,0.154219025871689,0.3451052432134164,9.714290083373578,0.12077157928055471,0.13062709085409577,0.0987947343883228,9.227363850033834,0.25940731621453006,1,2
637,pocket,0.4493414734516422,0.0550683457482433,9.720342044659407,0.16364056115261594,0.12043817181844894,0.0897956065225646,9.958238303235646,0.3034072970053147,2,1
638,pocket,0.45512928998657637,0.0004905768497326102,9.724336468837835,0.13955198569291413,0.11030603417223481,0.13758270462862807,9.650299288559008,0.28933738157621286,2,1
639,handheld,-0.01172206317024932,0.10925579702803091,9.849178295183389,0.12211938396583998,0.08163926481088982,0.09264566941237577,9.666829929050165,0.14855269931473764,1,2
640,handbag,0.04028795831045867,0.10079621630855927,9.509540145117256,0.17194497573382436,0.1142613929790403,0.12142310344223338,9.908498389415083,0.31200089189804925,1,1
641,pocket,0.16940691307080946,0.13362122242023558,9.642947910505146,0.1951278877555995,0.12724849049227138,0.09014656832861806,9.281552314614784,0.31505093114780913,1,2
642,pocket,0.34388842756715277,0.055106407735840204,9.796526129352346,0.15874641017677166,0.13087029682595136,0.07451896743422658,9.684499035252161,0.21264996798318245,2,1
643,handheld,-0.06412115310794855,0.1232448175919452,9.82079024982751,0.1442915832744506,0.11663851573428877,0.07457497861460424,10.134607884960351,0.21361290024958252,1,2
644,pocket,0.2017787047623783,0.12555284467654537,9.752720008351831,0.1307986331036586,0.12355953423708906,0.11411221706143357,9.669029866393673,0.22411607161893501,2,1
645,handbag,0.13887312651305322,0.21871876272320057,9.691587299149548,0.15523669224210238,0.09713032992763473,0.07872147190678981,9.40921772162814,0.266587204343514,1,1
646,handbag,0.40889470114278503,0.12116076604509822,9.89615597076728,0.1627346552679965,0.12778805921177852,0.09579825584851012,9.653362444544848,0.23482722298422903,1,1
647,pocket,-0.04153627109538813,0.12229700367579066,9.727781174992378,0.15013786302991278,0.12018876584872225,0.08700884839454874,10.067227451611748,0.2694557280679007,2,1
648,pocket,0.22388109232404335,0.17196156556502204,9.71307859901763,0.16790875845986808,0.12330418689277467,0.08242399593622371,9.548722306308527,0.1848854944716543,2,1
649,handheld,0.15095858439771093,0.21411860758178208,9.843178531304297,0.1802777937540813,0.11561111791706853,0.08486269444995355,9.355021685679532,0.19641219731784024,1,2
650,handbag,0.4304698389415932,-0.00804109451518946,9.75755511347237,0.12480623598686626,0.12425645988301805,0.10414534019087801,9.623278023046772,0.20622013478630233,1,2
651,handbag,0.29964789695298744,-0.040278467184018577,9.80398302221892,0.15588098603438147,0.13269223839302285,0.040441568597153824,9.388814288486206,0.2091577267801635,2,2
652,pocket,0.12212765111133979,0.31345755552605736,9.815697233339959,0.1119333600115355,0.12510916715676457,0.11688156504961802,9.175934349011808,0.2713688658632136,2,2
653,handheld,0.3380079664993623,0.19448905255137897,9.67275283776099,0.13371902390350332,0.0835423081806097,0.07410123150900462,9.928417908191292,0.26228785509548025,1,1
654,handbag,0.15167567200371393,0.08367360364047166,9.886773181236393,0.16439727915900282,0.12552330896442065,0.0766516512834354,10.00201209672261,0.2829173471799127,1,2
655,handbag,0.359899456685963,0.11236423239597572,9.463787988907395,0.14906389849226062,0.11224265610333978,0.07111989286499967,9.844752414092738,0.3040826300432858,2,2
656,handheld,0.17443845136716327,0.06289259680042078,9.512034309219274,0.11778203160866958,0.10583611150231517,0.10538340922284496,9.963370706393302,0.2697181016247101,1,1
657,handheld,0.36819998681531446,0.13535368693298627,9.64197853777277,0.17099822328020797,0.14698345958145542,0.12927801495244803,9.638409074099112,0.1608878140017868,1,2
658,handbag,0.27541229326908745,-0.006620462728562551,9.667663944372524,0.1391353242123672,0.10134969739998737,0.09728717336369683,10.077938614206241,0.22910735910544547,2,1
659,handbag,0.6990736621037135,0.21082003821079112,9.746262469143549,0.1670177445751628,0.10360640766922123,0.10873770649270842,9.582911182880775,0.23585443784085544,1,2
660,handheld,0.20206559918759934,0.1310544078354202,9.641055546249067,0.16025363949469965,0.07517220825491983,0.1107768912563535,9.740128919269393,0.26289299033638064,2,1
661,handbag,0.26742934374321725,0.13539525152400214,9.708808161002718,0.13333744437852152,0.14881029744451024,0.11482394018544508,9.529082937347626,0.2028225751278315,2,1
662,pocket,0.1380862887426103,0.002726914078577364,9.689485732743222,0.16737812235661223,0.1378229092123876,0.0799285356935222,9.389471450024155,0.3239991265043405,1,1
663,pocket,0.2104028011132168,0.17291205161271628,9.910446506393976,0.15637233280398918,0.11335542666493753,0.1318691343911989,9.581036364557534,0.2299327138238596,2,2
664,handheld,-0.1952752701224161,0.005483402822475086,9.62950243407499,0.15350095366537703,0.1322559961295795,0.09332075749492257,10.297304252404253,0.23346073749025015,2,1
665,handheld,0.2798376024811548,0.026941896810945692,9.541695544343836,0.1406369755192856,0.07548843607389258,0.10562119681722276,10.123339177753524,0.24022145995687297,2,2
666,handheld,0.41143113194241177,0.12051463081301014,9.821900023254011,0.12794551921041133,0.12950571549124656,0.0970005020750368,9.93378028109673,0.22422569357831632,1,1
667,pocket,0.26949450068990316,0.41087982795387823,9.638604343338852,0.14162639872389937,0.10285864140507131,0.09109044790248502,9.632861964657234,0.16323880888854092,1,1
668,handbag,0.012920781303393414,0.1305759360025771,9.700833670914976,0.1411910330669797,0.15347504996002542,0.11879136575389325,9.627188321750959,0.31205421109602477,1,1
669,pocket,0.08973192709364983,-0.19825610556010825,9.645382454987363,0.16703237937465418,0.1273508479747856,0.11270221546602308,10.16832474193364,0.21826434050643298,2,1
670,handbag,-0.15452881907344054,0.032899833996709954,9.78371760980512,0.11702030883901132,0.12262013544030359,0.05627655271686961,9.74557834445628,0.28149180812151137,2,1
671,pocket,0.3568386010298136,0.19204749346646885,9.572572544444528,0.17941429779933715,0.10358590228173017,0.1083831491379184,9.937662787340068,0.2287314334620962,1,1
672,handbag,0.05902300609356295,-0.025415313398094844,9.430080815310403,0.1805119083511014,0.10371098821569896,0.1419524923275297,9.60156994826044,0.2185435815218931,1,2
673,pocket,0.20569371146816579,0.2097322929374792,9.839571628847331,0.13717992394952608,0.13185107077283206,0.10371471157290396,9.665670973322728,0.1877519974435409,2,1
674,handheld,0.186939364150917,0.12905846897180356,9.734747081082316,0.17803147621343024,0.10339864144637768,0.08978349237947307,9.93516736889871,0.16092530333448507,1,1
675,pocket,0.43315905534874,0.2289592631108931,9.817264441715725,0.12988836225829128,0.10261235269620243,0.09233087956357819,9.556149195710868,0.22773325940212455,2,2
676,handbag,0.22279219769486078,0.04293750688988032,9.83622119728929,0.17254251093680442,0.14814169667044869,0.08876149817494688,9.82706746073276,0.22561488563964116,1,2
677,pocket,0.33133393801590144,0.0335859302080741,9.618353378620768,0.1336068189140055,0.12575100112928234,0.07701952313853373,9.564919023558106,0.32181113555197427,1,1
678,pocket,0.29196956462214935,0.17779821899414136,9.716066499789674,0.17066873781774622,0.09807622345368916,0.09630642705146862,9.867545539441325,0.2535890820431862,1,1
679,pocket,0.4139117129942099,0.10909659500334086,9.760538847909556,0.12125213539778479,0.131034931097386,0.09621560013952377,9.557417561764828,0.3070770191019093,1,1
680,handheld,0.1741314458245562,0.10183726258564708,9.699170792780354,0.17165704557031233,0.1144187970756558,0.11200325969250281,10.17814130515195,0.17490552556668576,2,1
681,pocket,0.49044229957567753,0.29827638427388753,9.678784878266422,0.1757716114421923,0.08468354927365213,0.08955021893654314,9.72393945538883,0.25259234752397425,1,2
682,handheld,-0.08784932345989724,0.18249691124741418,9.68863488131385,0.12060853952464107,0.11001982989808534,0.14021851318886253,9.933622805945797,0.2775352342424037,2,2
683,handheld,0.3386210247001854,-0.12879075600348733,9.81835428713054,0.18514518885952305,0.09902837375716293,0.08126588865397869,9.734834773940237,0.2556124202994598,2,2
684,pocket,0.08000705870038019,0.20588817470196652,9.684098780491246,0.1703699300344958,0.12511555128570542,0.10294521895375948,9.61465741374311,0.2575076285505813,1,2
685,pocket,0.13608756708300712,0.19387625604981462,9.77002294676035,0.1100401584353963,0.10688835957676777,0.08504854447072521,9.883576007580306,0.23752799391876678,2,2
686,pocket,0.2954121400351553,0.25218935446681184,9.74468928036821,0.1402007946204026,0.12181804500887633,0.08922665850102467,10.028450371515449,0.1902831719061409,2,1
687,handbag,0.2942103074771614,-0.0027638103488210747,9.61358169948299,0.17075203611361503,0.13332519368193127,0.09441080319147839,9.377911601888544,0.18167604813028582,1,2
688,pocket,0.3009642020535107,0.14897669902521474,9.740196948951413,0.1644622322369709,0.1672191936592133,0.10407626458645763,9.77275885107795,0.28533356486805145,1,1
689,handheld,0.002076308384214298,0.12339560254918178,9.556132892706742,0.15223575139754555,0.1595980234410669,0.1160580440336604,9.712977457026852,0.21696919581130522,1,2
690,pocket,0.427354534691886,-0.004915821697570391,9.750143323694438,0.1685592929979855,0.12446498837616084,0.09068707317885251,9.792442762524121,0.22868306359836554,1,2
691,handbag,0.07490293226584863,0.2236119881487897,9.79911171862575,0.13251941635633438,0.11894791704647906,0.07006349204838183,10.07846195918727,0.2169588229682906,1,1
692,pocket,0.09490693646622013,0.0810144800828741,9.822141402909693,0.1509472588042807,0.1080981658222544,0.1273927394459094,9.944069425045642,0.2053282265394618,1,1
693,handbag,0.3056845107250243,0.24832788695028013,9.614730985937076,0.13308837603594625,0.08713804066834835,0.08045715489087625,10.029162333967307,0.17687264077601272,2,1
694,handbag,0.1669918237858139,0.02085694579190288,9.656384592860315,0.15269618520244443,0.07427372362811924,0.09507018981627648,9.805775729849996,0.3268021439629129,2,1
695,pocket,0.25623912608437377,-0.06527025649592742,9.738406520706453,0.17002061916051148,0.10314592012678506,0.1011028852717436,9.63159497264118,0.14807188580992556,1,1
696,handheld,-0.11349010449491817,0.08089205815626266,9.662407518846456,0.16563120959263217,0.15274889631765426,0.09795602486752615,9.133801391644871,0.28439330776262695,2,1
697,handbag,0.2526486674278847,0.13782958190749367,9.5171123017204,0.1544577947510247,0.15206195128014324,0.0717614605397181,10.093830666005028,0.30444358479251254,2,2
698,pocket,0.24267478192683226,0.045896488733730575,9.655830352624356,0.16979387501191623,0.12143286579141827,0.11724104470000868,9.114966760988676,0.2570725054587186,2,2
699,pocket,0.1335212193353575,-0.2577348242509873,9.738020163824064,0.17176356027513426,0.12930432315362198,0.043634869756747574,10.13689238144329,0.24125099791114712,1,2
700,handheld,-0.10111139396471844,0.1560378973902524,9.816752831464049,0.18594645742925145,0.10790565839875306,0.11959580382479003,9.925231923039117,0.2616459399619535,1,2
